session;treatment;period;phase;profit;subject;q;qi_min;Subject;client;Geschlecht;Alter;Trust_1;Trust_2;LM_1;LM_2;LM_3;LM_4;LM_5;LM_6;LM_7;LM_8;LM_9;LM_10;MM_1;MM_2;MM_3;MM_4;MM_5;MM_6;Studiengang;#N;#E;#T
S01;weakR;1;1;204;1;10;0;;;;;;;;;;;;;;;;;;;;;;;;;;
S01;weakR;1;1;199.5;2;15;0;;;;;;;;;;;;;;;;;;;;;;;;;;
S01;weakR;1;1;210;3;0;0;;;;;;;;;;;;;;;;;;;;;;;;;;
S01;weakR;1;1;151.5;4;45;0;;;;;;;;;;;;;;;;;;;;;;;;;;
S01;weakR;1;1;195;5;50;0;;;;;;;;;;;;;;;;;;;;;;;;;;
S01;weakR;1;1;242.5;6;25;0;;;;;;;;;;;;;;;;;;;;;;;;;;
S01;weakR;1;1;195;7;50;0;;;;;;;;;;;;;;;;;;;;;;;;;;
S01;weakR;1;1;265;8;0;0;;;;;;;;;;;;;;;;;;;;;;;;;;
S01;weakR;1;1;170;9;50;0;;;;;;;;;;;;;;;;;;;;;;;;;;
S01;weakR;1;1;229.5;10;15;0;;;;;;;;;;;;;;;;;;;;;;;;;;
S01;weakR;1;1;224;11;20;0;;;;;;;;;;;;;;;;;;;;;;;;;;
S01;weakR;1;1;229.5;12;15;0;;;;;;;;;;;;;;;;;;;;;;;;;;
S01;weakR;1;1;107;13;90;0;;;;;;;;;;;;;;;;;;;;;;;;;;
S01;weakR;1;1;299;14;10;0;;;;;;;;;;;;;;;;;;;;;;;;;;
S01;weakR;1;1;294.5;15;15;0;;;;;;;;;;;;;;;;;;;;;;;;;;
S01;weakR;1;1;235;16;50;0;;;;;;;;;;;;;;;;;;;;;;;;;;
S01;weakR;2;1;224;1;20;10;;;;;;;;;;;;;;;;;;;;;;;;;;
S01;weakR;2;1;229.5;2;15;15;;;;;;;;;;;;;;;;;;;;;;;;;;
S01;weakR;2;1;224;3;20;0;;;;;;;;;;;;;;;;;;;;;;;;;;
S01;weakR;2;1;181.5;4;45;45;;;;;;;;;;;;;;;;;;;;;;;;;;
S01;weakR;2;1;210;5;50;50;;;;;;;;;;;;;;;;;;;;;;;;;;
S01;weakR;2;1;257.5;6;25;25;;;;;;;;;;;;;;;;;;;;;;;;;;
S01;weakR;2;1;210;7;50;50;;;;;;;;;;;;;;;;;;;;;;;;;;
S01;weakR;2;1;269.5;8;15;0;;;;;;;;;;;;;;;;;;;;;;;;;;
S01;weakR;2;1;200;9;50;50;;;;;;;;;;;;;;;;;;;;;;;;;;
S01;weakR;2;1;247.5;10;25;15;;;;;;;;;;;;;;;;;;;;;;;;;;
S01;weakR;2;1;240;11;30;20;;;;;;;;;;;;;;;;;;;;;;;;;;
S01;weakR;2;1;247.5;12;25;15;;;;;;;;;;;;;;;;;;;;;;;;;;
S01;weakR;2;1;128;13;90;90;;;;;;;;;;;;;;;;;;;;;;;;;;
S01;weakR;2;1;296;14;30;10;;;;;;;;;;;;;;;;;;;;;;;;;;
S01;weakR;2;1;315.5;15;15;15;;;;;;;;;;;;;;;;;;;;;;;;;;
S01;weakR;2;1;253.58;16;51;50;;;;;;;;;;;;;;;;;;;;;;;;;;
S01;weakR;3;1;222.5;1;25;20;;;;;;;;;;;;;;;;;;;;;;;;;;
S01;weakR;3;1;234.5;2;15;15;;;;;;;;;;;;;;;;;;;;;;;;;;
S01;weakR;3;1;229;3;20;20;;;;;;;;;;;;;;;;;;;;;;;;;;
S01;weakR;3;1;186.5;4;45;45;;;;;;;;;;;;;;;;;;;;;;;;;;
S01;weakR;3;1;199;5;60;50;;;;;;;;;;;;;;;;;;;;;;;;;;
S01;weakR;3;1;265;6;30;25;;;;;;;;;;;;;;;;;;;;;;;;;;
S01;weakR;3;1;225;7;50;50;;;;;;;;;;;;;;;;;;;;;;;;;;
S01;weakR;3;1;284.5;8;15;15;;;;;;;;;;;;;;;;;;;;;;;;;;
S01;weakR;3;1;240;9;50;50;;;;;;;;;;;;;;;;;;;;;;;;;;
S01;weakR;3;1;271.5;10;35;25;;;;;;;;;;;;;;;;;;;;;;;;;;
S01;weakR;3;1;240;11;50;30;;;;;;;;;;;;;;;;;;;;;;;;;;
S01;weakR;3;1;271.5;12;35;25;;;;;;;;;;;;;;;;;;;;;;;;;;
S01;weakR;3;1;142;13;90;90;;;;;;;;;;;;;;;;;;;;;;;;;;
S01;weakR;3;1;310;14;30;30;;;;;;;;;;;;;;;;;;;;;;;;;;
S01;weakR;3;1;329.5;15;15;15;;;;;;;;;;;;;;;;;;;;;;;;;;
S01;weakR;3;1;229.5;16;65;51;;;;;;;;;;;;;;;;;;;;;;;;;;
S01;weakR;4;1;224.5;1;25;25;;;;;;;;;;;;;;;;;;;;;;;;;;
S01;weakR;4;1;236.5;2;15;15;;;;;;;;;;;;;;;;;;;;;;;;;;
S01;weakR;4;1;231;3;20;20;;;;;;;;;;;;;;;;;;;;;;;;;;
S01;weakR;4;1;184.02;4;47;45;;;;;;;;;;;;;;;;;;;;;;;;;;
S01;weakR;4;1;274;5;60;60;;;;;;;;;;;;;;;;;;;;;;;;;;
S01;weakR;4;1;340;6;30;30;;;;;;;;;;;;;;;;;;;;;;;;;;
S01;weakR;4;1;300;7;50;50;;;;;;;;;;;;;;;;;;;;;;;;;;
S01;weakR;4;1;172;8;90;15;;;;;;;;;;;;;;;;;;;;;;;;;;
S01;weakR;4;1;250;9;50;50;;;;;;;;;;;;;;;;;;;;;;;;;;
S01;weakR;4;1;281.5;10;35;35;;;;;;;;;;;;;;;;;;;;;;;;;;
S01;weakR;4;1;250;11;50;50;;;;;;;;;;;;;;;;;;;;;;;;;;
S01;weakR;4;1;261.5;12;45;35;;;;;;;;;;;;;;;;;;;;;;;;;;
S01;weakR;4;1;152;13;90;90;;;;;;;;;;;;;;;;;;;;;;;;;;
S01;weakR;4;1;320;14;30;30;;;;;;;;;;;;;;;;;;;;;;;;;;
S01;weakR;4;1;339.5;15;15;15;;;;;;;;;;;;;;;;;;;;;;;;;;
S01;weakR;4;1;207.5;16;75;65;;;;;;;;;;;;;;;;;;;;;;;;;;
S01;weakR;5;1;234.5;1;25;25;;;;;;;;;;;;;;;;;;;;;;;;;;
S01;weakR;5;1;246.5;2;15;15;;;;;;;;;;;;;;;;;;;;;;;;;;
S01;weakR;5;1;227;3;30;20;;;;;;;;;;;;;;;;;;;;;;;;;;
S01;weakR;5;1;194.02;4;47;47;;;;;;;;;;;;;;;;;;;;;;;;;;
S01;weakR;5;1;265.5;5;65;60;;;;;;;;;;;;;;;;;;;;;;;;;;
S01;weakR;5;1;344.38;6;31;30;;;;;;;;;;;;;;;;;;;;;;;;;;
S01;weakR;5;1;306;7;50;50;;;;;;;;;;;;;;;;;;;;;;;;;;
S01;weakR;5;1;178;8;90;90;;;;;;;;;;;;;;;;;;;;;;;;;;
S01;weakR;5;1;270;9;50;50;;;;;;;;;;;;;;;;;;;;;;;;;;
S01;weakR;5;1;292;10;40;35;;;;;;;;;;;;;;;;;;;;;;;;;;
S01;weakR;5;1;270;11;50;50;;;;;;;;;;;;;;;;;;;;;;;;;;
S01;weakR;5;1;244;12;60;45;;;;;;;;;;;;;;;;;;;;;;;;;;
S01;weakR;5;1;152;13;90;90;;;;;;;;;;;;;;;;;;;;;;;;;;
S01;weakR;5;1;320;14;30;30;;;;;;;;;;;;;;;;;;;;;;;;;;
S01;weakR;5;1;339.5;15;15;15;;;;;;;;;;;;;;;;;;;;;;;;;;
S01;weakR;5;1;207.5;16;75;75;;;;;;;;;;;;;;;;;;;;;;;;;;
S01;weakR;1;2;170;1;0;0;;;;;;;;;;;;;;;;;;;;;;;;;;
S01;weakR;1;2;159.5;2;15;0;;;;;;;;;;;;;;;;;;;;;;;;;;
S01;weakR;1;2;159.5;3;15;0;;;;;;;;;;;;;;;;;;;;;;;;;;
S01;weakR;1;2;170;4;0;0;;;;;;;;;;;;;;;;;;;;;;;;;;
S01;weakR;1;2;226;5;10;0;;;;;;;;;;;;;;;;;;;;;;;;;;
S01;weakR;1;2;198.72;6;32;0;;;;;;;;;;;;;;;;;;;;;;;;;;
S01;weakR;1;2;193.5;7;35;0;;;;;;;;;;;;;;;;;;;;;;;;;;
S01;weakR;1;2;221.5;8;15;0;;;;;;;;;;;;;;;;;;;;;;;;;;
S01;weakR;1;2;234;9;20;0;;;;;;;;;;;;;;;;;;;;;;;;;;
S01;weakR;1;2;239.5;10;15;0;;;;;;;;;;;;;;;;;;;;;;;;;;
S01;weakR;1;2;180;11;50;0;;;;;;;;;;;;;;;;;;;;;;;;;;
S01;weakR;1;2;227.5;12;25;0;;;;;;;;;;;;;;;;;;;;;;;;;;
S01;weakR;1;2;239.5;13;15;0;;;;;;;;;;;;;;;;;;;;;;;;;;
S01;weakR;1;2;234;14;20;0;;;;;;;;;;;;;;;;;;;;;;;;;;
S01;weakR;1;2;239.5;15;15;0;;;;;;;;;;;;;;;;;;;;;;;;;;
S01;weakR;1;2;154;16;60;0;;;;;;;;;;;;;;;;;;;;;;;;;;
S01;weakR;2;2;204;1;10;0;;;;;;;;;;;;;;;;;;;;;;;;;;
S01;weakR;2;2;199.5;2;15;15;;;;;;;;;;;;;;;;;;;;;;;;;;
S01;weakR;2;2;180;3;30;15;;;;;;;;;;;;;;;;;;;;;;;;;;
S01;weakR;2;2;199.5;4;15;0;;;;;;;;;;;;;;;;;;;;;;;;;;
S01;weakR;2;2;226;5;10;10;;;;;;;;;;;;;;;;;;;;;;;;;;
S01;weakR;2;2;198.72;6;32;32;;;;;;;;;;;;;;;;;;;;;;;;;;
S01;weakR;2;2;193.5;7;35;35;;;;;;;;;;;;;;;;;;;;;;;;;;
S01;weakR;2;2;221.5;8;15;15;;;;;;;;;;;;;;;;;;;;;;;;;;
S01;weakR;2;2;252.5;9;25;20;;;;;;;;;;;;;;;;;;;;;;;;;;
S01;weakR;2;2;252.5;10;25;15;;;;;;;;;;;;;;;;;;;;;;;;;;
S01;weakR;2;2;205;11;50;50;;;;;;;;;;;;;;;;;;;;;;;;;;
S01;weakR;2;2;236.5;12;35;25;;;;;;;;;;;;;;;;;;;;;;;;;;
S01;weakR;2;2;244.5;13;15;15;;;;;;;;;;;;;;;;;;;;;;;;;;
S01;weakR;2;2;239;14;20;20;;;;;;;;;;;;;;;;;;;;;;;;;;
S01;weakR;2;2;244.5;15;15;15;;;;;;;;;;;;;;;;;;;;;;;;;;
S01;weakR;2;2;144.5;16;65;60;;;;;;;;;;;;;;;;;;;;;;;;;;
S01;weakR;3;2;229.5;1;15;10;;;;;;;;;;;;;;;;;;;;;;;;;;
S01;weakR;3;2;229.5;2;15;15;;;;;;;;;;;;;;;;;;;;;;;;;;
S01;weakR;3;2;210;3;30;30;;;;;;;;;;;;;;;;;;;;;;;;;;
S01;weakR;3;2;192;4;40;15;;;;;;;;;;;;;;;;;;;;;;;;;;
S01;weakR;3;2;231;5;10;10;;;;;;;;;;;;;;;;;;;;;;;;;;
S01;weakR;3;2;203.72;6;32;32;;;;;;;;;;;;;;;;;;;;;;;;;;
S01;weakR;3;2;189;7;40;35;;;;;;;;;;;;;;;;;;;;;;;;;;
S01;weakR;3;2;226.5;8;15;15;;;;;;;;;;;;;;;;;;;;;;;;;;
S01;weakR;3;2;266.62;9;27;25;;;;;;;;;;;;;;;;;;;;;;;;;;
S01;weakR;3;2;262;10;30;25;;;;;;;;;;;;;;;;;;;;;;;;;;
S01;weakR;3;2;209.5;11;55;50;;;;;;;;;;;;;;;;;;;;;;;;;;
S01;weakR;3;2;244;12;40;35;;;;;;;;;;;;;;;;;;;;;;;;;;
S01;weakR;3;2;244;13;20;15;;;;;;;;;;;;;;;;;;;;;;;;;;
S01;weakR;3;2;244;14;20;20;;;;;;;;;;;;;;;;;;;;;;;;;;
S01;weakR;3;2;249.5;15;15;15;;;;;;;;;;;;;;;;;;;;;;;;;;
S01;weakR;3;2;149.5;16;65;65;;;;;;;;;;;;;;;;;;;;;;;;;;
S01;weakR;4;2;234.5;1;15;15;;;;;;;;;;;;;;;;;;;;;;;;;;
S01;weakR;4;2;229;2;20;15;;;;;;;;;;;;;;;;;;;;;;;;;;
S01;weakR;4;2;215;3;30;30;;;;;;;;;;;;;;;;;;;;;;;;;;
S01;weakR;4;2;197;4;40;40;;;;;;;;;;;;;;;;;;;;;;;;;;
S01;weakR;4;2;231;5;20;10;;;;;;;;;;;;;;;;;;;;;;;;;;
S01;weakR;4;2;213.72;6;32;32;;;;;;;;;;;;;;;;;;;;;;;;;;
S01;weakR;4;2;199;7;40;40;;;;;;;;;;;;;;;;;;;;;;;;;;
S01;weakR;4;2;236.5;8;15;15;;;;;;;;;;;;;;;;;;;;;;;;;;
S01;weakR;4;2;290;9;30;27;;;;;;;;;;;;;;;;;;;;;;;;;;
S01;weakR;4;2;281.5;10;35;30;;;;;;;;;;;;;;;;;;;;;;;;;;
S01;weakR;4;2;194;11;70;55;;;;;;;;;;;;;;;;;;;;;;;;;;
S01;weakR;4;2;261.5;12;45;40;;;;;;;;;;;;;;;;;;;;;;;;;;
S01;weakR;4;2;244;13;20;20;;;;;;;;;;;;;;;;;;;;;;;;;;
S01;weakR;4;2;244;14;20;20;;;;;;;;;;;;;;;;;;;;;;;;;;
S01;weakR;4;2;249.5;15;15;15;;;;;;;;;;;;;;;;;;;;;;;;;;
S01;weakR;4;2;149.5;16;65;65;;;;;;;;;;;;;;;;;;;;;;;;;;
S01;weakR;5;2;234.5;1;15;15;;;;;;;;;;;;;;;;;;;;;;;;;;
S01;weakR;5;2;229;2;20;20;;;;;;;;;;;;;;;;;;;;;;;;;;
S01;weakR;5;2;215;3;30;30;;;;;;;;;;;;;;;;;;;;;;;;;;
S01;weakR;5;2;197;4;40;40;;;;;;;;;;;;;;;;;;;;;;;;;;
S01;weakR;5;2;233.52;5;22;20;;;;;;;;;;;;;;;;;;;;;;;;;;
S01;weakR;5;2;218.72;6;32;32;;;;;;;;;;;;;;;;;;;;;;;;;;
S01;weakR;5;2;197.82;7;43;40;;;;;;;;;;;;;;;;;;;;;;;;;;
S01;weakR;5;2;241.5;8;15;15;;;;;;;;;;;;;;;;;;;;;;;;;;
S01;weakR;5;2;309;9;40;30;;;;;;;;;;;;;;;;;;;;;;;;;;
S01;weakR;5;2;314.82;10;37;35;;;;;;;;;;;;;;;;;;;;;;;;;;
S01;weakR;5;2;159;11;90;70;;;;;;;;;;;;;;;;;;;;;;;;;;
S01;weakR;5;2;287;12;50;45;;;;;;;;;;;;;;;;;;;;;;;;;;
S01;weakR;5;2;249;13;20;20;;;;;;;;;;;;;;;;;;;;;;;;;;
S01;weakR;5;2;242.5;14;25;20;;;;;;;;;;;;;;;;;;;;;;;;;;
S01;weakR;5;2;254.5;15;15;15;;;;;;;;;;;;;;;;;;;;;;;;;;
S01;weakR;5;2;154.5;16;65;65;;;;;;;;;;;;;;;;;;;;;;;;;;
S01;weakR;1;3;185;1;0;0;;;;;;;;;;;;;;;;;;;;;;;;;;
S01;weakR;1;3;174.5;2;15;0;;;;;;;;;;;;;;;;;;;;;;;;;;
S01;weakR;1;3;174.5;3;15;0;;;;;;;;;;;;;;;;;;;;;;;;;;
S01;weakR;1;3;174.5;4;15;0;;;;;;;;;;;;;;;;;;;;;;;;;;
S01;weakR;1;3;209.32;5;12;0;;;;;;;;;;;;;;;;;;;;;;;;;;
S01;weakR;1;3;201;6;20;0;;;;;;;;;;;;;;;;;;;;;;;;;;
S01;weakR;1;3;187;7;30;0;;;;;;;;;;;;;;;;;;;;;;;;;;
S01;weakR;1;3;206.5;8;15;0;;;;;;;;;;;;;;;;;;;;;;;;;;
S01;weakR;1;3;177;9;40;0;;;;;;;;;;;;;;;;;;;;;;;;;;
S01;weakR;1;3;214.5;10;15;0;;;;;;;;;;;;;;;;;;;;;;;;;;
S01;weakR;1;3;225;11;0;0;;;;;;;;;;;;;;;;;;;;;;;;;;
S01;weakR;1;3;195;12;30;0;;;;;;;;;;;;;;;;;;;;;;;;;;
S01;weakR;1;3;224.5;13;15;0;;;;;;;;;;;;;;;;;;;;;;;;;;
S01;weakR;1;3;224.5;14;15;0;;;;;;;;;;;;;;;;;;;;;;;;;;
S01;weakR;1;3;224.5;15;15;0;;;;;;;;;;;;;;;;;;;;;;;;;;
S01;weakR;1;3;165;16;50;0;;;;;;;;;;;;;;;;;;;;;;;;;;
S01;weakR;2;3;194;1;10;0;;;;;;;;;;;;;;;;;;;;;;;;;;
S01;weakR;2;3;189.5;2;15;15;;;;;;;;;;;;;;;;;;;;;;;;;;
S01;weakR;2;3;189.5;3;15;15;;;;;;;;;;;;;;;;;;;;;;;;;;
S01;weakR;2;3;184;4;20;15;;;;;;;;;;;;;;;;;;;;;;;;;;
S01;weakR;2;3;284.5;5;15;12;;;;;;;;;;;;;;;;;;;;;;;;;;
S01;weakR;2;3;279;6;20;20;;;;;;;;;;;;;;;;;;;;;;;;;;
S01;weakR;2;3;265;7;30;30;;;;;;;;;;;;;;;;;;;;;;;;;;
S01;weakR;2;3;97;8;90;15;;;;;;;;;;;;;;;;;;;;;;;;;;
S01;weakR;2;3;222;9;40;40;;;;;;;;;;;;;;;;;;;;;;;;;;
S01;weakR;2;3;254;10;20;15;;;;;;;;;;;;;;;;;;;;;;;;;;
S01;weakR;2;3;240;11;30;0;;;;;;;;;;;;;;;;;;;;;;;;;;
S01;weakR;2;3;222;12;40;30;;;;;;;;;;;;;;;;;;;;;;;;;;
S01;weakR;2;3;229.5;13;15;15;;;;;;;;;;;;;;;;;;;;;;;;;;
S01;weakR;2;3;224;14;20;15;;;;;;;;;;;;;;;;;;;;;;;;;;
S01;weakR;2;3;229.5;15;15;15;;;;;;;;;;;;;;;;;;;;;;;;;;
S01;weakR;2;3;170;16;50;50;;;;;;;;;;;;;;;;;;;;;;;;;;
S01;weakR;3;3;201.5;1;15;10;;;;;;;;;;;;;;;;;;;;;;;;;;
S01;weakR;3;3;199.42;2;17;15;;;;;;;;;;;;;;;;;;;;;;;;;;
S01;weakR;3;3;196;3;20;15;;;;;;;;;;;;;;;;;;;;;;;;;;
S01;weakR;3;3;196;4;20;20;;;;;;;;;;;;;;;;;;;;;;;;;;
S01;weakR;3;3;294;5;20;15;;;;;;;;;;;;;;;;;;;;;;;;;;
S01;weakR;3;3;294;6;20;20;;;;;;;;;;;;;;;;;;;;;;;;;;
S01;weakR;3;3;262;7;40;30;;;;;;;;;;;;;;;;;;;;;;;;;;
S01;weakR;3;3;112;8;90;90;;;;;;;;;;;;;;;;;;;;;;;;;;
S01;weakR;3;3;257;9;40;40;;;;;;;;;;;;;;;;;;;;;;;;;;
S01;weakR;3;3;275;10;30;20;;;;;;;;;;;;;;;;;;;;;;;;;;
S01;weakR;3;3;246.5;11;45;30;;;;;;;;;;;;;;;;;;;;;;;;;;
S01;weakR;3;3;235;12;50;40;;;;;;;;;;;;;;;;;;;;;;;;;;
S01;weakR;3;3;229;13;20;15;;;;;;;;;;;;;;;;;;;;;;;;;;
S01;weakR;3;3;229;14;20;20;;;;;;;;;;;;;;;;;;;;;;;;;;
S01;weakR;3;3;234.5;15;15;15;;;;;;;;;;;;;;;;;;;;;;;;;;
S01;weakR;3;3;175;16;50;50;;;;;;;;;;;;;;;;;;;;;;;;;;
S01;weakR;4;3;201.5;1;15;15;;;;;;;;;;;;;;;;;;;;;;;;;;
S01;weakR;4;3;199.42;2;17;17;;;;;;;;;;;;;;;;;;;;;;;;;;
S01;weakR;4;3;196;3;20;20;;;;;;;;;;;;;;;;;;;;;;;;;;
S01;weakR;4;3;196;4;20;20;;;;;;;;;;;;;;;;;;;;;;;;;;
S01;weakR;4;3;272;5;50;20;;;;;;;;;;;;;;;;;;;;;;;;;;
S01;weakR;4;3;326;6;20;20;;;;;;;;;;;;;;;;;;;;;;;;;;
S01;weakR;4;3;289.92;7;42;40;;;;;;;;;;;;;;;;;;;;;;;;;;
S01;weakR;4;3;144;8;90;90;;;;;;;;;;;;;;;;;;;;;;;;;;
S01;weakR;4;3;258.5;9;45;40;;;;;;;;;;;;;;;;;;;;;;;;;;
S01;weakR;4;3;283.72;10;32;30;;;;;;;;;;;;;;;;;;;;;;;;;;
S01;weakR;4;3;247;11;50;45;;;;;;;;;;;;;;;;;;;;;;;;;;
S01;weakR;4;3;247;12;50;50;;;;;;;;;;;;;;;;;;;;;;;;;;
S01;weakR;4;3;235;13;20;20;;;;;;;;;;;;;;;;;;;;;;;;;;
S01;weakR;4;3;228.5;14;25;20;;;;;;;;;;;;;;;;;;;;;;;;;;
S01;weakR;4;3;240.5;15;15;15;;;;;;;;;;;;;;;;;;;;;;;;;;
S01;weakR;4;3;178.58;16;51;50;;;;;;;;;;;;;;;;;;;;;;;;;;
S01;weakR;5;3;201.5;1;15;15;;;;;;;;;;;;;;;;;;;;;;;;;;
S01;weakR;5;3;199.42;2;17;17;;;;;;;;;;;;;;;;;;;;;;;;;;
S01;weakR;5;3;196;3;20;20;;;;;;;;;;;;;;;;;;;;;;;;;;
S01;weakR;5;3;196;4;20;20;;;;;;;;;;;;;;;;;;;;;;;;;;
S01;weakR;5;3;272;5;50;50;;;;;;;;;;;;;;;;;;;;;;;;;;
S01;weakR;5;3;326;6;20;20;;;;;;;;;;;;;;;;;;;;;;;;;;
S01;weakR;5;3;289.92;7;42;42;;;;;;;;;;;;;;;;;;;;;;;;;;
S01;weakR;5;3;144;8;90;90;;;;;;;;;;;;;;;;;;;;;;;;;;
S01;weakR;5;3;262.72;9;48;45;;;;;;;;;;;;;;;;;;;;;;;;;;
S01;weakR;5;3;289.5;10;35;32;;;;;;;;;;;;;;;;;;;;;;;;;;
S01;weakR;5;3;245.5;11;55;50;;;;;;;;;;;;;;;;;;;;;;;;;;
S01;weakR;5;3;258;12;50;50;;;;;;;;;;;;;;;;;;;;;;;;;;
S01;weakR;5;3;240;13;20;20;;;;;;;;;;;;;;;;;;;;;;;;;;
S01;weakR;5;3;226;14;30;25;;;;;;;;;;;;;;;;;;;;;;;;;;
S01;weakR;5;3;245.5;15;15;15;;;;;;;;;;;;;;;;;;;;;;;;;;
S01;weakR;5;3;183.58;16;51;51;;;;;;;;;;;;;;;;;;;;;;;;;;
S01;weakR;1;4;210;1;0;0;;;;;;;;;;;;;;;;;;;;;;;;;;
S01;weakR;1;4;199.5;2;15;0;;;;;;;;;;;;;;;;;;;;;;;;;;
S01;weakR;1;4;210;3;0;0;;;;;;;;;;;;;;;;;;;;;;;;;;
S01;weakR;1;4;127.5;4;55;0;;;;;;;;;;;;;;;;;;;;;;;;;;
S01;weakR;1;4;269.18;5;11;0;;;;;;;;;;;;;;;;;;;;;;;;;;
S01;weakR;1;4;273.5;6;5;0;;;;;;;;;;;;;;;;;;;;;;;;;;
S01;weakR;1;4;246;7;30;0;;;;;;;;;;;;;;;;;;;;;;;;;;
S01;weakR;1;4;78;8;90;0;;;;;;;;;;;;;;;;;;;;;;;;;;
S01;weakR;1;4;185;9;30;0;;;;;;;;;;;;;;;;;;;;;;;;;;
S01;weakR;1;4;204.5;10;15;0;;;;;;;;;;;;;;;;;;;;;;;;;;
S01;weakR;1;4;212.5;11;5;0;;;;;;;;;;;;;;;;;;;;;;;;;;
S01;weakR;1;4;192.5;12;25;0;;;;;;;;;;;;;;;;;;;;;;;;;;
S01;weakR;1;4;269.5;13;15;0;;;;;;;;;;;;;;;;;;;;;;;;;;
S01;weakR;1;4;264;14;20;0;;;;;;;;;;;;;;;;;;;;;;;;;;
S01;weakR;1;4;269.5;15;15;0;;;;;;;;;;;;;;;;;;;;;;;;;;
S01;weakR;1;4;82;16;90;0;;;;;;;;;;;;;;;;;;;;;;;;;;
S01;weakR;2;4;254;1;10;0;;;;;;;;;;;;;;;;;;;;;;;;;;
S01;weakR;2;4;249.5;2;15;15;;;;;;;;;;;;;;;;;;;;;;;;;;
S01;weakR;2;4;212;3;40;0;;;;;;;;;;;;;;;;;;;;;;;;;;
S01;weakR;2;4;177.5;4;55;55;;;;;;;;;;;;;;;;;;;;;;;;;;
S01;weakR;2;4;279.5;5;15;11;;;;;;;;;;;;;;;;;;;;;;;;;;
S01;weakR;2;4;284;6;10;5;;;;;;;;;;;;;;;;;;;;;;;;;;
S01;weakR;2;4;251.5;7;35;30;;;;;;;;;;;;;;;;;;;;;;;;;;
S01;weakR;2;4;92;8;90;90;;;;;;;;;;;;;;;;;;;;;;;;;;
S01;weakR;2;4;205;9;30;30;;;;;;;;;;;;;;;;;;;;;;;;;;
S01;weakR;2;4;224.5;10;15;15;;;;;;;;;;;;;;;;;;;;;;;;;;
S01;weakR;2;4;224.5;11;15;5;;;;;;;;;;;;;;;;;;;;;;;;;;
S01;weakR;2;4;196.5;12;35;25;;;;;;;;;;;;;;;;;;;;;;;;;;
S01;weakR;2;4;270.5;13;15;15;;;;;;;;;;;;;;;;;;;;;;;;;;
S01;weakR;2;4;263.78;14;21;20;;;;;;;;;;;;;;;;;;;;;;;;;;
S01;weakR;2;4;270.5;15;15;15;;;;;;;;;;;;;;;;;;;;;;;;;;
S01;weakR;2;4;83;16;90;90;;;;;;;;;;;;;;;;;;;;;;;;;;
S01;weakR;3;4;274.5;1;15;10;;;;;;;;;;;;;;;;;;;;;;;;;;
S01;weakR;3;4;246.5;2;35;15;;;;;;;;;;;;;;;;;;;;;;;;;;
S01;weakR;3;4;237;3;40;40;;;;;;;;;;;;;;;;;;;;;;;;;;
S01;weakR;3;4;202.5;4;55;55;;;;;;;;;;;;;;;;;;;;;;;;;;
S01;weakR;3;4;294.5;5;15;15;;;;;;;;;;;;;;;;;;;;;;;;;;
S01;weakR;3;4;294.5;6;15;10;;;;;;;;;;;;;;;;;;;;;;;;;;
S01;weakR;3;4;246.5;7;45;35;;;;;;;;;;;;;;;;;;;;;;;;;;
S01;weakR;3;4;107;8;90;90;;;;;;;;;;;;;;;;;;;;;;;;;;
S01;weakR;3;4;215;9;30;30;;;;;;;;;;;;;;;;;;;;;;;;;;
S01;weakR;3;4;222.5;10;25;15;;;;;;;;;;;;;;;;;;;;;;;;;;
S01;weakR;3;4;234.5;11;15;15;;;;;;;;;;;;;;;;;;;;;;;;;;
S01;weakR;3;4;206.5;12;35;35;;;;;;;;;;;;;;;;;;;;;;;;;;
S01;weakR;3;4;273.5;13;15;15;;;;;;;;;;;;;;;;;;;;;;;;;;
S01;weakR;3;4;262.88;14;24;21;;;;;;;;;;;;;;;;;;;;;;;;;;
S01;weakR;3;4;273.5;15;15;15;;;;;;;;;;;;;;;;;;;;;;;;;;
S01;weakR;3;4;86;16;90;90;;;;;;;;;;;;;;;;;;;;;;;;;;
S01;weakR;4;4;289.5;1;15;15;;;;;;;;;;;;;;;;;;;;;;;;;;
S01;weakR;4;4;252;2;40;35;;;;;;;;;;;;;;;;;;;;;;;;;;
S01;weakR;4;4;241.5;3;45;40;;;;;;;;;;;;;;;;;;;;;;;;;;
S01;weakR;4;4;204;4;60;55;;;;;;;;;;;;;;;;;;;;;;;;;;
S01;weakR;4;4;282;5;40;15;;;;;;;;;;;;;;;;;;;;;;;;;;
S01;weakR;4;4;319.5;6;15;15;;;;;;;;;;;;;;;;;;;;;;;;;;
S01;weakR;4;4;271.5;7;45;45;;;;;;;;;;;;;;;;;;;;;;;;;;
S01;weakR;4;4;132;8;90;90;;;;;;;;;;;;;;;;;;;;;;;;;;
S01;weakR;4;4;215;9;30;30;;;;;;;;;;;;;;;;;;;;;;;;;;
S01;weakR;4;4;222.5;10;25;25;;;;;;;;;;;;;;;;;;;;;;;;;;
S01;weakR;4;4;234.5;11;15;15;;;;;;;;;;;;;;;;;;;;;;;;;;
S01;weakR;4;4;206.5;12;35;35;;;;;;;;;;;;;;;;;;;;;;;;;;
S01;weakR;4;4;278.5;13;15;15;;;;;;;;;;;;;;;;;;;;;;;;;;
S01;weakR;4;4;267.88;14;24;24;;;;;;;;;;;;;;;;;;;;;;;;;;
S01;weakR;4;4;278.5;15;15;15;;;;;;;;;;;;;;;;;;;;;;;;;;
S01;weakR;4;4;70.5;16;95;90;;;;;;;;;;;;;;;;;;;;;;;;;;
S01;weakR;5;4;299.5;1;15;15;;;;;;;;;;;;;;;;;;;;;;;;;;
S01;weakR;5;4;262;2;40;40;;;;;;;;;;;;;;;;;;;;;;;;;;
S01;weakR;5;4;227.5;3;55;45;;;;;;;;;;;;;;;;;;;;;;;;;;
S01;weakR;5;4;214;4;60;60;;;;;;;;;;;;;;;;;;;;;;;;;;
S01;weakR;5;4;254;5;60;40;;;;;;;;;;;;;;;;;;;;;;;;;;
S01;weakR;5;4;339.5;6;15;15;;;;;;;;;;;;;;;;;;;;;;;;;;
S01;weakR;5;4;291.5;7;45;45;;;;;;;;;;;;;;;;;;;;;;;;;;
S01;weakR;5;4;152;8;90;90;;;;;;;;;;;;;;;;;;;;;;;;;;
S01;weakR;5;4;215;9;30;30;;;;;;;;;;;;;;;;;;;;;;;;;;
S01;weakR;5;4;222.5;10;25;25;;;;;;;;;;;;;;;;;;;;;;;;;;
S01;weakR;5;4;234.5;11;15;15;;;;;;;;;;;;;;;;;;;;;;;;;;
S01;weakR;5;4;206.5;12;35;35;;;;;;;;;;;;;;;;;;;;;;;;;;
S01;weakR;5;4;284.5;13;15;15;;;;;;;;;;;;;;;;;;;;;;;;;;
S01;weakR;5;4;272.5;14;25;24;;;;;;;;;;;;;;;;;;;;;;;;;;
S01;weakR;5;4;284.5;15;15;15;;;;;;;;;;;;;;;;;;;;;;;;;;
S01;weakR;5;4;55;16;100;95;;;;;;;;;;;;;;;;;;;;;;;;;;
S01;weakR;1;5;240;1;0;0;;;;;;;;;;;;;;;;;;;;;;;;;;
S01;weakR;1;5;229.5;2;15;0;;;;;;;;;;;;;;;;;;;;;;;;;;
S01;weakR;1;5;210;3;30;0;;;;;;;;;;;;;;;;;;;;;;;;;;
S01;weakR;1;5;157.5;4;55;0;;;;;;;;;;;;;;;;;;;;;;;;;;
S01;weakR;1;5;285;5;0;0;;;;;;;;;;;;;;;;;;;;;;;;;;
S01;weakR;1;5;274.5;6;15;0;;;;;;;;;;;;;;;;;;;;;;;;;;
S01;weakR;1;5;237;7;40;0;;;;;;;;;;;;;;;;;;;;;;;;;;
S01;weakR;1;5;87;8;90;0;;;;;;;;;;;;;;;;;;;;;;;;;;
S01;weakR;1;5;205;9;30;0;;;;;;;;;;;;;;;;;;;;;;;;;;
S01;weakR;1;5;212.5;10;25;0;;;;;;;;;;;;;;;;;;;;;;;;;;
S01;weakR;1;5;224.5;11;15;0;;;;;;;;;;;;;;;;;;;;;;;;;;
S01;weakR;1;5;212.5;12;25;0;;;;;;;;;;;;;;;;;;;;;;;;;;
S01;weakR;1;5;234.5;13;15;0;;;;;;;;;;;;;;;;;;;;;;;;;;
S01;weakR;1;5;239;14;10;0;;;;;;;;;;;;;;;;;;;;;;;;;;
S01;weakR;1;5;234.5;15;15;0;;;;;;;;;;;;;;;;;;;;;;;;;;
S01;weakR;1;5;134.5;16;65;0;;;;;;;;;;;;;;;;;;;;;;;;;;
S01;weakR;2;5;264.5;1;15;0;;;;;;;;;;;;;;;;;;;;;;;;;;
S01;weakR;2;5;252.5;2;25;15;;;;;;;;;;;;;;;;;;;;;;;;;;
S01;weakR;2;5;227;3;40;30;;;;;;;;;;;;;;;;;;;;;;;;;;
S01;weakR;2;5;192.5;4;55;55;;;;;;;;;;;;;;;;;;;;;;;;;;
S01;weakR;2;5;289.5;5;15;0;;;;;;;;;;;;;;;;;;;;;;;;;;
S01;weakR;2;5;289.5;6;15;15;;;;;;;;;;;;;;;;;;;;;;;;;;
S01;weakR;2;5;252;7;40;40;;;;;;;;;;;;;;;;;;;;;;;;;;
S01;weakR;2;5;102;8;90;90;;;;;;;;;;;;;;;;;;;;;;;;;;
S01;weakR;2;5;220;9;30;30;;;;;;;;;;;;;;;;;;;;;;;;;;
S01;weakR;2;5;227.5;10;25;25;;;;;;;;;;;;;;;;;;;;;;;;;;
S01;weakR;2;5;227.5;11;25;15;;;;;;;;;;;;;;;;;;;;;;;;;;
S01;weakR;2;5;220;12;30;25;;;;;;;;;;;;;;;;;;;;;;;;;;
S01;weakR;2;5;244.5;13;15;15;;;;;;;;;;;;;;;;;;;;;;;;;;
S01;weakR;2;5;239;14;20;10;;;;;;;;;;;;;;;;;;;;;;;;;;
S01;weakR;2;5;244.5;15;15;15;;;;;;;;;;;;;;;;;;;;;;;;;;
S01;weakR;2;5;144.5;16;65;65;;;;;;;;;;;;;;;;;;;;;;;;;;
S01;weakR;3;5;294.5;1;15;15;;;;;;;;;;;;;;;;;;;;;;;;;;
S01;weakR;3;5;266.5;2;35;25;;;;;;;;;;;;;;;;;;;;;;;;;;
S01;weakR;3;5;222.5;3;55;40;;;;;;;;;;;;;;;;;;;;;;;;;;
S01;weakR;3;5;209;4;60;55;;;;;;;;;;;;;;;;;;;;;;;;;;
S01;weakR;3;5;291.48;5;16;15;;;;;;;;;;;;;;;;;;;;;;;;;;
S01;weakR;3;5;292.5;6;15;15;;;;;;;;;;;;;;;;;;;;;;;;;;
S01;weakR;3;5;250.92;7;42;40;;;;;;;;;;;;;;;;;;;;;;;;;;
S01;weakR;3;5;105;8;90;90;;;;;;;;;;;;;;;;;;;;;;;;;;
S01;weakR;3;5;235;9;30;30;;;;;;;;;;;;;;;;;;;;;;;;;;
S01;weakR;3;5;235;10;30;25;;;;;;;;;;;;;;;;;;;;;;;;;;
S01;weakR;3;5;235;11;30;25;;;;;;;;;;;;;;;;;;;;;;;;;;
S01;weakR;3;5;226.5;12;35;30;;;;;;;;;;;;;;;;;;;;;;;;;;
S01;weakR;3;5;249.5;13;15;15;;;;;;;;;;;;;;;;;;;;;;;;;;
S01;weakR;3;5;244;14;20;20;;;;;;;;;;;;;;;;;;;;;;;;;;
S01;weakR;3;5;249.5;15;15;15;;;;;;;;;;;;;;;;;;;;;;;;;;
S01;weakR;3;5;134;16;70;65;;;;;;;;;;;;;;;;;;;;;;;;;;
S01;weakR;4;5;304.5;1;15;15;;;;;;;;;;;;;;;;;;;;;;;;;;
S01;weakR;4;5;256.5;2;45;35;;;;;;;;;;;;;;;;;;;;;;;;;;
S01;weakR;4;5;232.5;3;55;55;;;;;;;;;;;;;;;;;;;;;;;;;;
S01;weakR;4;5;219;4;60;60;;;;;;;;;;;;;;;;;;;;;;;;;;
S01;weakR;4;5;292.48;5;16;16;;;;;;;;;;;;;;;;;;;;;;;;;;
S01;weakR;4;5;293.5;6;15;15;;;;;;;;;;;;;;;;;;;;;;;;;;
S01;weakR;4;5;249.82;7;43;42;;;;;;;;;;;;;;;;;;;;;;;;;;
S01;weakR;4;5;106;8;90;90;;;;;;;;;;;;;;;;;;;;;;;;;;
S01;weakR;4;5;245;9;30;30;;;;;;;;;;;;;;;;;;;;;;;;;;
S01;weakR;4;5;245;10;30;30;;;;;;;;;;;;;;;;;;;;;;;;;;
S01;weakR;4;5;236.5;11;35;30;;;;;;;;;;;;;;;;;;;;;;;;;;
S01;weakR;4;5;227;12;40;35;;;;;;;;;;;;;;;;;;;;;;;;;;
S01;weakR;4;5;249.5;13;15;15;;;;;;;;;;;;;;;;;;;;;;;;;;
S01;weakR;4;5;244;14;20;20;;;;;;;;;;;;;;;;;;;;;;;;;;
S01;weakR;4;5;249.5;15;15;15;;;;;;;;;;;;;;;;;;;;;;;;;;
S01;weakR;4;5;134;16;70;70;;;;;;;;;;;;;;;;;;;;;;;;;;
S01;weakR;5;5;304.5;1;15;15;;;;;;;;;;;;;;;;;;;;;;;;;;
S01;weakR;5;5;256.5;2;45;45;;;;;;;;;;;;;;;;;;;;;;;;;;
S01;weakR;5;5;232.5;3;55;55;;;;;;;;;;;;;;;;;;;;;;;;;;
S01;weakR;5;5;219;4;60;60;;;;;;;;;;;;;;;;;;;;;;;;;;
S01;weakR;5;5;292;5;20;16;;;;;;;;;;;;;;;;;;;;;;;;;;
S01;weakR;5;5;297.5;6;15;15;;;;;;;;;;;;;;;;;;;;;;;;;;
S01;weakR;5;5;253.82;7;43;43;;;;;;;;;;;;;;;;;;;;;;;;;;
S01;weakR;5;5;110;8;90;90;;;;;;;;;;;;;;;;;;;;;;;;;;
S01;weakR;5;5;245;9;30;30;;;;;;;;;;;;;;;;;;;;;;;;;;
S01;weakR;5;5;245;10;30;30;;;;;;;;;;;;;;;;;;;;;;;;;;
S01;weakR;5;5;236.5;11;35;35;;;;;;;;;;;;;;;;;;;;;;;;;;
S01;weakR;5;5;227;12;40;40;;;;;;;;;;;;;;;;;;;;;;;;;;
S01;weakR;5;5;137;13;90;15;;;;;;;;;;;;;;;;;;;;;;;;;;
S01;weakR;5;5;319;14;20;20;;;;;;;;;;;;;;;;;;;;;;;;;;
S01;weakR;5;5;324.5;15;15;15;;;;;;;;;;;;;;;;;;;;;;;;;;
S01;weakR;5;5;209;16;70;70;;;;;;;;;;;;;;;;;;;;;;;;;;
S02;base;1;1;182;1;90;0;;;;;;;;;;;;;;;;;;;;;;;;;;
S02;base;1;1;254;2;70;0;;;;;;;;;;;;;;;;;;;;;;;;;;
S02;base;1;1;369.5;3;15;0;;;;;;;;;;;;;;;;;;;;;;;;;;
S02;base;1;1;269.5;4;65;0;;;;;;;;;;;;;;;;;;;;;;;;;;
S02;base;1;1;192;5;90;0;;;;;;;;;;;;;;;;;;;;;;;;;;
S02;base;1;1;247.5;6;75;0;;;;;;;;;;;;;;;;;;;;;;;;;;
S02;base;1;1;279.5;7;65;0;;;;;;;;;;;;;;;;;;;;;;;;;;
S02;base;1;1;374;8;20;0;;;;;;;;;;;;;;;;;;;;;;;;;;
S02;base;1;1;187;9;90;0;;;;;;;;;;;;;;;;;;;;;;;;;;
S02;base;1;1;315;10;50;0;;;;;;;;;;;;;;;;;;;;;;;;;;
S02;base;1;1;315;11;50;0;;;;;;;;;;;;;;;;;;;;;;;;;;
S02;base;1;1;302.5;12;55;0;;;;;;;;;;;;;;;;;;;;;;;;;;
S02;base;1;1;209;13;70;0;;;;;;;;;;;;;;;;;;;;;;;;;;
S02;base;1;1;324.5;14;15;0;;;;;;;;;;;;;;;;;;;;;;;;;;
S02;base;1;1;137;15;90;0;;;;;;;;;;;;;;;;;;;;;;;;;;
S02;base;1;1;319;16;20;0;;;;;;;;;;;;;;;;;;;;;;;;;;
S02;base;1;1;354;17;20;0;;;;;;;;;;;;;;;;;;;;;;;;;;
S02;base;1;1;259.5;18;65;0;;;;;;;;;;;;;;;;;;;;;;;;;;
S02;base;1;1;210;19;80;0;;;;;;;;;;;;;;;;;;;;;;;;;;
S02;base;1;1;259.5;20;65;0;;;;;;;;;;;;;;;;;;;;;;;;;;
S02;base;2;1;259;1;70;90;;;;;;;;;;;;;;;;;;;;;;;;;;
S02;base;2;1;225;2;80;70;;;;;;;;;;;;;;;;;;;;;;;;;;
S02;base;2;1;362.5;3;25;15;;;;;;;;;;;;;;;;;;;;;;;;;;
S02;base;2;1;259;4;70;65;;;;;;;;;;;;;;;;;;;;;;;;;;
S02;base;2;1;147;5;90;90;;;;;;;;;;;;;;;;;;;;;;;;;;
S02;base;2;1;306.5;6;35;75;;;;;;;;;;;;;;;;;;;;;;;;;;
S02;base;2;1;275;7;50;65;;;;;;;;;;;;;;;;;;;;;;;;;;
S02;base;2;1;315;8;30;20;;;;;;;;;;;;;;;;;;;;;;;;;;
S02;base;2;1;262.5;9;75;90;;;;;;;;;;;;;;;;;;;;;;;;;;
S02;base;2;1;322.5;10;55;50;;;;;;;;;;;;;;;;;;;;;;;;;;
S02;base;2;1;262.5;11;75;50;;;;;;;;;;;;;;;;;;;;;;;;;;
S02;base;2;1;309;12;60;55;;;;;;;;;;;;;;;;;;;;;;;;;;
S02;base;2;1;180;13;80;70;;;;;;;;;;;;;;;;;;;;;;;;;;
S02;base;2;1;334;14;10;15;;;;;;;;;;;;;;;;;;;;;;;;;;
S02;base;2;1;142;15;90;90;;;;;;;;;;;;;;;;;;;;;;;;;;
S02;base;2;1;324;16;20;20;;;;;;;;;;;;;;;;;;;;;;;;;;
S02;base;2;1;249.5;17;15;20;;;;;;;;;;;;;;;;;;;;;;;;;;
S02;base;2;1;212;18;40;65;;;;;;;;;;;;;;;;;;;;;;;;;;
S02;base;2;1;249.5;19;15;80;;;;;;;;;;;;;;;;;;;;;;;;;;
S02;base;2;1;190;20;50;65;;;;;;;;;;;;;;;;;;;;;;;;;;
S02;base;3;1;137;1;90;70;;;;;;;;;;;;;;;;;;;;;;;;;;
S02;base;3;1;324.5;2;15;80;;;;;;;;;;;;;;;;;;;;;;;;;;
S02;base;3;1;287;3;40;25;;;;;;;;;;;;;;;;;;;;;;;;;;
S02;base;3;1;265;4;50;70;;;;;;;;;;;;;;;;;;;;;;;;;;
S02;base;3;1;217;5;90;90;;;;;;;;;;;;;;;;;;;;;;;;;;
S02;base;3;1;345;6;50;35;;;;;;;;;;;;;;;;;;;;;;;;;;
S02;base;3;1;332.5;7;55;50;;;;;;;;;;;;;;;;;;;;;;;;;;
S02;base;3;1;255;8;80;30;;;;;;;;;;;;;;;;;;;;;;;;;;
S02;base;3;1;320;9;50;75;;;;;;;;;;;;;;;;;;;;;;;;;;
S02;base;3;1;294;10;60;55;;;;;;;;;;;;;;;;;;;;;;;;;;
S02;base;3;1;230;11;80;75;;;;;;;;;;;;;;;;;;;;;;;;;;
S02;base;3;1;294;12;60;60;;;;;;;;;;;;;;;;;;;;;;;;;;
S02;base;3;1;170;13;50;80;;;;;;;;;;;;;;;;;;;;;;;;;;
S02;base;3;1;234;14;10;10;;;;;;;;;;;;;;;;;;;;;;;;;;
S02;base;3;1;229.5;15;15;90;;;;;;;;;;;;;;;;;;;;;;;;;;
S02;base;3;1;217.5;16;25;20;;;;;;;;;;;;;;;;;;;;;;;;;;
S02;base;3;1;339;17;10;15;;;;;;;;;;;;;;;;;;;;;;;;;;
S02;base;3;1;315;18;30;40;;;;;;;;;;;;;;;;;;;;;;;;;;
S02;base;3;1;105;19;100;15;;;;;;;;;;;;;;;;;;;;;;;;;;
S02;base;3;1;234.5;20;65;50;;;;;;;;;;;;;;;;;;;;;;;;;;
S02;base;4;1;329.5;1;15;90;;;;;;;;;;;;;;;;;;;;;;;;;;
S02;base;4;1;214;2;70;15;;;;;;;;;;;;;;;;;;;;;;;;;;
S02;base;4;1;329.5;3;15;40;;;;;;;;;;;;;;;;;;;;;;;;;;
S02;base;4;1;100;4;100;50;;;;;;;;;;;;;;;;;;;;;;;;;;
S02;base;4;1;270;5;50;90;;;;;;;;;;;;;;;;;;;;;;;;;;
S02;base;4;1;270;6;50;50;;;;;;;;;;;;;;;;;;;;;;;;;;
S02;base;4;1;270;7;50;55;;;;;;;;;;;;;;;;;;;;;;;;;;
S02;base;4;1;270;8;50;80;;;;;;;;;;;;;;;;;;;;;;;;;;
S02;base;4;1;184;9;70;50;;;;;;;;;;;;;;;;;;;;;;;;;;
S02;base;4;1;214;10;60;60;;;;;;;;;;;;;;;;;;;;;;;;;;
S02;base;4;1;262;11;40;80;;;;;;;;;;;;;;;;;;;;;;;;;;
S02;base;4;1;310;12;0;60;;;;;;;;;;;;;;;;;;;;;;;;;;
S02;base;4;1;199.5;13;15;50;;;;;;;;;;;;;;;;;;;;;;;;;;
S02;base;4;1;194;14;20;10;;;;;;;;;;;;;;;;;;;;;;;;;;
S02;base;4;1;199.5;15;15;15;;;;;;;;;;;;;;;;;;;;;;;;;;
S02;base;4;1;194;16;20;25;;;;;;;;;;;;;;;;;;;;;;;;;;
S02;base;4;1;287.5;17;25;10;;;;;;;;;;;;;;;;;;;;;;;;;;
S02;base;4;1;214;18;60;30;;;;;;;;;;;;;;;;;;;;;;;;;;
S02;base;4;1;294;19;20;100;;;;;;;;;;;;;;;;;;;;;;;;;;
S02;base;4;1;199.5;20;65;65;;;;;;;;;;;;;;;;;;;;;;;;;;
S02;base;5;1;284.5;1;15;15;;;;;;;;;;;;;;;;;;;;;;;;;;
S02;base;5;1;265;2;30;70;;;;;;;;;;;;;;;;;;;;;;;;;;
S02;base;5;1;97;3;90;15;;;;;;;;;;;;;;;;;;;;;;;;;;
S02;base;5;1;279;4;20;100;;;;;;;;;;;;;;;;;;;;;;;;;;
S02;base;5;1;290;5;50;50;;;;;;;;;;;;;;;;;;;;;;;;;;
S02;base;5;1;200;6;80;50;;;;;;;;;;;;;;;;;;;;;;;;;;
S02;base;5;1;217.5;7;75;50;;;;;;;;;;;;;;;;;;;;;;;;;;
S02;base;5;1;349.5;8;15;50;;;;;;;;;;;;;;;;;;;;;;;;;;
S02;base;5;1;317;9;40;70;;;;;;;;;;;;;;;;;;;;;;;;;;
S02;base;5;1;295;10;50;60;;;;;;;;;;;;;;;;;;;;;;;;;;
S02;base;5;1;205;11;80;40;;;;;;;;;;;;;;;;;;;;;;;;;;
S02;base;5;1;282.5;12;55;0;;;;;;;;;;;;;;;;;;;;;;;;;;
S02;base;5;1;199.5;13;15;15;;;;;;;;;;;;;;;;;;;;;;;;;;
S02;base;5;1;194;14;20;20;;;;;;;;;;;;;;;;;;;;;;;;;;
S02;base;5;1;199.5;15;15;15;;;;;;;;;;;;;;;;;;;;;;;;;;
S02;base;5;1;194;16;20;20;;;;;;;;;;;;;;;;;;;;;;;;;;
S02;base;5;1;277.5;17;25;25;;;;;;;;;;;;;;;;;;;;;;;;;;
S02;base;5;1;174;18;70;60;;;;;;;;;;;;;;;;;;;;;;;;;;
S02;base;5;1;230;19;50;20;;;;;;;;;;;;;;;;;;;;;;;;;;
S02;base;5;1;289.5;20;15;65;;;;;;;;;;;;;;;;;;;;;;;;;;
S02;base;1;2;324;1;20;0;;;;;;;;;;;;;;;;;;;;;;;;;;
S02;base;1;2;142;2;90;0;;;;;;;;;;;;;;;;;;;;;;;;;;
S02;base;1;2;324;3;20;0;;;;;;;;;;;;;;;;;;;;;;;;;;
S02;base;1;2;214;4;70;0;;;;;;;;;;;;;;;;;;;;;;;;;;
S02;base;1;2;360;5;50;0;;;;;;;;;;;;;;;;;;;;;;;;;;
S02;base;1;2;287.5;6;75;0;;;;;;;;;;;;;;;;;;;;;;;;;;
S02;base;1;2;287.5;7;75;0;;;;;;;;;;;;;;;;;;;;;;;;;;
S02;base;1;2;232;8;90;0;;;;;;;;;;;;;;;;;;;;;;;;;;
S02;base;1;2;237.5;9;75;0;;;;;;;;;;;;;;;;;;;;;;;;;;
S02;base;1;2;310;10;50;0;;;;;;;;;;;;;;;;;;;;;;;;;;
S02;base;1;2;284;11;60;0;;;;;;;;;;;;;;;;;;;;;;;;;;
S02;base;1;2;297.5;12;55;0;;;;;;;;;;;;;;;;;;;;;;;;;;
S02;base;1;2;259;13;70;0;;;;;;;;;;;;;;;;;;;;;;;;;;
S02;base;1;2;374.5;14;15;0;;;;;;;;;;;;;;;;;;;;;;;;;;
S02;base;1;2;187;15;90;0;;;;;;;;;;;;;;;;;;;;;;;;;;
S02;base;1;2;259;16;70;0;;;;;;;;;;;;;;;;;;;;;;;;;;
S02;base;1;2;294.5;17;15;0;;;;;;;;;;;;;;;;;;;;;;;;;;
S02;base;1;2;209;18;60;0;;;;;;;;;;;;;;;;;;;;;;;;;;
S02;base;1;2;294.5;19;15;0;;;;;;;;;;;;;;;;;;;;;;;;;;
S02;base;1;2;162.5;20;75;0;;;;;;;;;;;;;;;;;;;;;;;;;;
S02;base;2;2;367.5;1;25;20;;;;;;;;;;;;;;;;;;;;;;;;;;
S02;base;2;2;192;2;90;90;;;;;;;;;;;;;;;;;;;;;;;;;;
S02;base;2;2;264;3;70;20;;;;;;;;;;;;;;;;;;;;;;;;;;
S02;base;2;2;279.5;4;65;70;;;;;;;;;;;;;;;;;;;;;;;;;;
S02;base;2;2;277;5;90;50;;;;;;;;;;;;;;;;;;;;;;;;;;
S02;base;2;2;332.5;6;75;75;;;;;;;;;;;;;;;;;;;;;;;;;;
S02;base;2;2;315;7;80;75;;;;;;;;;;;;;;;;;;;;;;;;;;
S02;base;2;2;277;8;90;90;;;;;;;;;;;;;;;;;;;;;;;;;;
S02;base;2;2;290;9;50;75;;;;;;;;;;;;;;;;;;;;;;;;;;
S02;base;2;2;264;10;60;50;;;;;;;;;;;;;;;;;;;;;;;;;;
S02;base;2;2;264;11;60;60;;;;;;;;;;;;;;;;;;;;;;;;;;
S02;base;2;2;290;12;50;55;;;;;;;;;;;;;;;;;;;;;;;;;;
S02;base;2;2;221.5;13;85;70;;;;;;;;;;;;;;;;;;;;;;;;;;
S02;base;2;2;389.5;14;15;15;;;;;;;;;;;;;;;;;;;;;;;;;;
S02;base;2;2;274;15;70;90;;;;;;;;;;;;;;;;;;;;;;;;;;
S02;base;2;2;202;16;90;70;;;;;;;;;;;;;;;;;;;;;;;;;;
S02;base;2;2;229;17;20;15;;;;;;;;;;;;;;;;;;;;;;;;;;
S02;base;2;2;175;18;50;60;;;;;;;;;;;;;;;;;;;;;;;;;;
S02;base;2;2;229;19;20;15;;;;;;;;;;;;;;;;;;;;;;;;;;
S02;base;2;2;234.5;20;15;75;;;;;;;;;;;;;;;;;;;;;;;;;;
S02;base;3;2;310;1;30;25;;;;;;;;;;;;;;;;;;;;;;;;;;
S02;base;3;2;324;2;20;90;;;;;;;;;;;;;;;;;;;;;;;;;;
S02;base;3;2;142;3;90;70;;;;;;;;;;;;;;;;;;;;;;;;;;
S02;base;3;2;244;4;60;65;;;;;;;;;;;;;;;;;;;;;;;;;;
S02;base;3;2;302;5;90;90;;;;;;;;;;;;;;;;;;;;;;;;;;
S02;base;3;2;302;6;90;75;;;;;;;;;;;;;;;;;;;;;;;;;;
S02;base;3;2;302;7;90;80;;;;;;;;;;;;;;;;;;;;;;;;;;
S02;base;3;2;302;8;90;90;;;;;;;;;;;;;;;;;;;;;;;;;;
S02;base;3;2;202.5;9;55;50;;;;;;;;;;;;;;;;;;;;;;;;;;
S02;base;3;2;189;10;60;60;;;;;;;;;;;;;;;;;;;;;;;;;;
S02;base;3;2;274.5;11;15;60;;;;;;;;;;;;;;;;;;;;;;;;;;
S02;base;3;2;274.5;12;15;50;;;;;;;;;;;;;;;;;;;;;;;;;;
S02;base;3;2;317.5;13;55;85;;;;;;;;;;;;;;;;;;;;;;;;;;
S02;base;3;2;389.5;14;15;15;;;;;;;;;;;;;;;;;;;;;;;;;;
S02;base;3;2;202;15;90;70;;;;;;;;;;;;;;;;;;;;;;;;;;
S02;base;3;2;160;16;100;90;;;;;;;;;;;;;;;;;;;;;;;;;;
S02;base;3;2;249.5;17;15;20;;;;;;;;;;;;;;;;;;;;;;;;;;
S02;base;3;2;212;18;40;50;;;;;;;;;;;;;;;;;;;;;;;;;;
S02;base;3;2;221.5;19;35;20;;;;;;;;;;;;;;;;;;;;;;;;;;
S02;base;3;2;230;20;30;15;;;;;;;;;;;;;;;;;;;;;;;;;;
S02;base;4;2;369.5;1;15;30;;;;;;;;;;;;;;;;;;;;;;;;;;
S02;base;4;2;254;2;70;20;;;;;;;;;;;;;;;;;;;;;;;;;;
S02;base;4;2;182;3;90;90;;;;;;;;;;;;;;;;;;;;;;;;;;
S02;base;4;2;269.5;4;65;60;;;;;;;;;;;;;;;;;;;;;;;;;;
S02;base;4;2;302;5;90;90;;;;;;;;;;;;;;;;;;;;;;;;;;
S02;base;4;2;302;6;90;90;;;;;;;;;;;;;;;;;;;;;;;;;;
S02;base;4;2;302;7;90;90;;;;;;;;;;;;;;;;;;;;;;;;;;
S02;base;4;2;302;8;90;90;;;;;;;;;;;;;;;;;;;;;;;;;;
S02;base;4;2;305;9;50;55;;;;;;;;;;;;;;;;;;;;;;;;;;
S02;base;4;2;305;10;50;60;;;;;;;;;;;;;;;;;;;;;;;;;;
S02;base;4;2;279;11;60;15;;;;;;;;;;;;;;;;;;;;;;;;;;
S02;base;4;2;232.5;12;75;15;;;;;;;;;;;;;;;;;;;;;;;;;;
S02;base;4;2;226.5;13;85;55;;;;;;;;;;;;;;;;;;;;;;;;;;
S02;base;4;2;394.5;14;15;15;;;;;;;;;;;;;;;;;;;;;;;;;;
S02;base;4;2;245;15;80;90;;;;;;;;;;;;;;;;;;;;;;;;;;
S02;base;4;2;226.5;16;85;100;;;;;;;;;;;;;;;;;;;;;;;;;;
S02;base;4;2;209.5;17;15;15;;;;;;;;;;;;;;;;;;;;;;;;;;
S02;base;4;2;209.5;18;15;40;;;;;;;;;;;;;;;;;;;;;;;;;;
S02;base;4;2;209.5;19;15;35;;;;;;;;;;;;;;;;;;;;;;;;;;
S02;base;4;2;181.5;20;35;30;;;;;;;;;;;;;;;;;;;;;;;;;;
S02;base;5;2;234.5;1;15;15;;;;;;;;;;;;;;;;;;;;;;;;;;
S02;base;5;2;239;2;10;70;;;;;;;;;;;;;;;;;;;;;;;;;;
S02;base;5;2;234.5;3;15;90;;;;;;;;;;;;;;;;;;;;;;;;;;
S02;base;5;2;134.5;4;65;65;;;;;;;;;;;;;;;;;;;;;;;;;;
S02;base;5;2;227;5;90;90;;;;;;;;;;;;;;;;;;;;;;;;;;
S02;base;5;2;227;6;90;90;;;;;;;;;;;;;;;;;;;;;;;;;;
S02;base;5;2;414.5;7;15;90;;;;;;;;;;;;;;;;;;;;;;;;;;
S02;base;5;2;227;8;90;90;;;;;;;;;;;;;;;;;;;;;;;;;;
S02;base;5;2;295;9;50;50;;;;;;;;;;;;;;;;;;;;;;;;;;
S02;base;5;2;317;10;40;50;;;;;;;;;;;;;;;;;;;;;;;;;;
S02;base;5;2;269;11;60;60;;;;;;;;;;;;;;;;;;;;;;;;;;
S02;base;5;2;222.5;12;75;75;;;;;;;;;;;;;;;;;;;;;;;;;;
S02;base;5;2;250;13;80;85;;;;;;;;;;;;;;;;;;;;;;;;;;
S02;base;5;2;399.5;14;15;15;;;;;;;;;;;;;;;;;;;;;;;;;;
S02;base;5;2;250;15;80;80;;;;;;;;;;;;;;;;;;;;;;;;;;
S02;base;5;2;191.5;16;95;85;;;;;;;;;;;;;;;;;;;;;;;;;;
S02;base;5;2;204.5;17;15;15;;;;;;;;;;;;;;;;;;;;;;;;;;
S02;base;5;2;185;18;30;15;;;;;;;;;;;;;;;;;;;;;;;;;;
S02;base;5;2;212.5;19;5;15;;;;;;;;;;;;;;;;;;;;;;;;;;
S02;base;5;2;192.5;20;25;35;;;;;;;;;;;;;;;;;;;;;;;;;;
S02;base;1;3;424.5;1;15;0;;;;;;;;;;;;;;;;;;;;;;;;;;
S02;base;1;3;237;2;90;0;;;;;;;;;;;;;;;;;;;;;;;;;;
S02;base;1;3;237;3;90;0;;;;;;;;;;;;;;;;;;;;;;;;;;
S02;base;1;3;195;4;100;0;;;;;;;;;;;;;;;;;;;;;;;;;;
S02;base;1;3;302;5;90;0;;;;;;;;;;;;;;;;;;;;;;;;;;
S02;base;1;3;302;6;90;0;;;;;;;;;;;;;;;;;;;;;;;;;;
S02;base;1;3;302;7;90;0;;;;;;;;;;;;;;;;;;;;;;;;;;
S02;base;1;3;302;8;90;0;;;;;;;;;;;;;;;;;;;;;;;;;;
S02;base;1;3;159;9;70;0;;;;;;;;;;;;;;;;;;;;;;;;;;
S02;base;1;3;189;10;60;0;;;;;;;;;;;;;;;;;;;;;;;;;;
S02;base;1;3;274.5;11;15;0;;;;;;;;;;;;;;;;;;;;;;;;;;
S02;base;1;3;285;12;0;0;;;;;;;;;;;;;;;;;;;;;;;;;;
S02;base;1;3;152;13;90;0;;;;;;;;;;;;;;;;;;;;;;;;;;
S02;base;1;3;339.5;14;15;0;;;;;;;;;;;;;;;;;;;;;;;;;;
S02;base;1;3;339.5;15;15;0;;;;;;;;;;;;;;;;;;;;;;;;;;
S02;base;1;3;152;16;90;0;;;;;;;;;;;;;;;;;;;;;;;;;;
S02;base;1;3;274;17;20;0;;;;;;;;;;;;;;;;;;;;;;;;;;
S02;base;1;3;92;18;90;0;;;;;;;;;;;;;;;;;;;;;;;;;;
S02;base;1;3;251.5;19;35;0;;;;;;;;;;;;;;;;;;;;;;;;;;
S02;base;1;3;287.5;20;5;0;;;;;;;;;;;;;;;;;;;;;;;;;;
S02;base;2;3;122;1;90;15;;;;;;;;;;;;;;;;;;;;;;;;;;
S02;base;2;3;314;2;10;90;;;;;;;;;;;;;;;;;;;;;;;;;;
S02;base;2;3;309.5;3;15;90;;;;;;;;;;;;;;;;;;;;;;;;;;
S02;base;2;3;209.5;4;65;100;;;;;;;;;;;;;;;;;;;;;;;;;;
S02;base;2;3;302;5;90;90;;;;;;;;;;;;;;;;;;;;;;;;;;
S02;base;2;3;302;6;90;90;;;;;;;;;;;;;;;;;;;;;;;;;;
S02;base;2;3;302;7;90;90;;;;;;;;;;;;;;;;;;;;;;;;;;
S02;base;2;3;302;8;90;90;;;;;;;;;;;;;;;;;;;;;;;;;;
S02;base;2;3;185;9;50;70;;;;;;;;;;;;;;;;;;;;;;;;;;
S02;base;2;3;185;10;50;60;;;;;;;;;;;;;;;;;;;;;;;;;;
S02;base;2;3;244.5;11;15;15;;;;;;;;;;;;;;;;;;;;;;;;;;
S02;base;2;3;255;12;0;0;;;;;;;;;;;;;;;;;;;;;;;;;;
S02;base;2;3;259;13;70;90;;;;;;;;;;;;;;;;;;;;;;;;;;
S02;base;2;3;374.5;14;15;15;;;;;;;;;;;;;;;;;;;;;;;;;;
S02;base;2;3;259;15;70;15;;;;;;;;;;;;;;;;;;;;;;;;;;
S02;base;2;3;187;16;90;90;;;;;;;;;;;;;;;;;;;;;;;;;;
S02;base;2;3;244.5;17;15;20;;;;;;;;;;;;;;;;;;;;;;;;;;
S02;base;2;3;239;18;20;90;;;;;;;;;;;;;;;;;;;;;;;;;;
S02;base;2;3;244.5;19;15;35;;;;;;;;;;;;;;;;;;;;;;;;;;
S02;base;2;3;144.5;20;65;5;;;;;;;;;;;;;;;;;;;;;;;;;;
S02;base;3;3;295;1;50;90;;;;;;;;;;;;;;;;;;;;;;;;;;
S02;base;3;3;349;2;20;10;;;;;;;;;;;;;;;;;;;;;;;;;;
S02;base;3;3;167;3;90;15;;;;;;;;;;;;;;;;;;;;;;;;;;
S02;base;3;3;254.5;4;65;65;;;;;;;;;;;;;;;;;;;;;;;;;;
S02;base;3;3;302;5;90;90;;;;;;;;;;;;;;;;;;;;;;;;;;
S02;base;3;3;302;6;90;90;;;;;;;;;;;;;;;;;;;;;;;;;;
S02;base;3;3;302;7;90;90;;;;;;;;;;;;;;;;;;;;;;;;;;
S02;base;3;3;302;8;90;90;;;;;;;;;;;;;;;;;;;;;;;;;;
S02;base;3;3;280;9;50;50;;;;;;;;;;;;;;;;;;;;;;;;;;
S02;base;3;3;302;10;40;50;;;;;;;;;;;;;;;;;;;;;;;;;;
S02;base;3;3;254;11;60;15;;;;;;;;;;;;;;;;;;;;;;;;;;
S02;base;3;3;254;12;60;0;;;;;;;;;;;;;;;;;;;;;;;;;;
S02;base;3;3;190;13;80;70;;;;;;;;;;;;;;;;;;;;;;;;;;
S02;base;3;3;339.5;14;15;15;;;;;;;;;;;;;;;;;;;;;;;;;;
S02;base;3;3;339.5;15;15;70;;;;;;;;;;;;;;;;;;;;;;;;;;
S02;base;3;3;110;16;100;90;;;;;;;;;;;;;;;;;;;;;;;;;;
S02;base;3;3;214.5;17;15;15;;;;;;;;;;;;;;;;;;;;;;;;;;
S02;base;3;3;209;18;20;20;;;;;;;;;;;;;;;;;;;;;;;;;;
S02;base;3;3;219;19;10;15;;;;;;;;;;;;;;;;;;;;;;;;;;
S02;base;3;3;177;20;40;65;;;;;;;;;;;;;;;;;;;;;;;;;;
S02;base;4;3;300;1;30;50;;;;;;;;;;;;;;;;;;;;;;;;;;
S02;base;4;3;170;2;80;20;;;;;;;;;;;;;;;;;;;;;;;;;;
S02;base;4;3;319.5;3;15;90;;;;;;;;;;;;;;;;;;;;;;;;;;
S02;base;4;3;219.5;4;65;65;;;;;;;;;;;;;;;;;;;;;;;;;;
S02;base;4;3;302;5;90;90;;;;;;;;;;;;;;;;;;;;;;;;;;
S02;base;4;3;302;6;90;90;;;;;;;;;;;;;;;;;;;;;;;;;;
S02;base;4;3;302;7;90;90;;;;;;;;;;;;;;;;;;;;;;;;;;
S02;base;4;3;302;8;90;90;;;;;;;;;;;;;;;;;;;;;;;;;;
S02;base;4;3;294.5;9;15;50;;;;;;;;;;;;;;;;;;;;;;;;;;
S02;base;4;3;235;10;50;40;;;;;;;;;;;;;;;;;;;;;;;;;;
S02;base;4;3;257;11;40;60;;;;;;;;;;;;;;;;;;;;;;;;;;
S02;base;4;3;209;12;60;60;;;;;;;;;;;;;;;;;;;;;;;;;;
S02;base;4;3;170;13;50;80;;;;;;;;;;;;;;;;;;;;;;;;;;
S02;base;4;3;229.5;14;15;15;;;;;;;;;;;;;;;;;;;;;;;;;;
S02;base;4;3;229.5;15;15;15;;;;;;;;;;;;;;;;;;;;;;;;;;
S02;base;4;3;224;16;20;100;;;;;;;;;;;;;;;;;;;;;;;;;;
S02;base;4;3;229.5;17;15;15;;;;;;;;;;;;;;;;;;;;;;;;;;
S02;base;4;3;170;18;50;20;;;;;;;;;;;;;;;;;;;;;;;;;;
S02;base;4;3;234;19;10;10;;;;;;;;;;;;;;;;;;;;;;;;;;
S02;base;4;3;217.5;20;25;40;;;;;;;;;;;;;;;;;;;;;;;;;;
S02;base;5;3;274.5;1;15;30;;;;;;;;;;;;;;;;;;;;;;;;;;
S02;base;5;3;189;2;60;80;;;;;;;;;;;;;;;;;;;;;;;;;;
S02;base;5;3;255;3;30;15;;;;;;;;;;;;;;;;;;;;;;;;;;
S02;base;5;3;237;4;40;65;;;;;;;;;;;;;;;;;;;;;;;;;;
S02;base;5;3;302;5;90;90;;;;;;;;;;;;;;;;;;;;;;;;;;
S02;base;5;3;302;6;90;90;;;;;;;;;;;;;;;;;;;;;;;;;;
S02;base;5;3;302;7;90;90;;;;;;;;;;;;;;;;;;;;;;;;;;
S02;base;5;3;302;8;90;90;;;;;;;;;;;;;;;;;;;;;;;;;;
S02;base;5;3;245;9;30;15;;;;;;;;;;;;;;;;;;;;;;;;;;
S02;base;5;3;227;10;40;50;;;;;;;;;;;;;;;;;;;;;;;;;;
S02;base;5;3;179;11;60;40;;;;;;;;;;;;;;;;;;;;;;;;;;
S02;base;5;3;272.5;12;5;60;;;;;;;;;;;;;;;;;;;;;;;;;;
S02;base;5;3;263.5;13;15;50;;;;;;;;;;;;;;;;;;;;;;;;;;
S02;base;5;3;264.48;14;14;15;;;;;;;;;;;;;;;;;;;;;;;;;;
S02;base;5;3;263.5;15;15;15;;;;;;;;;;;;;;;;;;;;;;;;;;
S02;base;5;3;76;16;90;20;;;;;;;;;;;;;;;;;;;;;;;;;;
S02;base;5;3;254;17;10;15;;;;;;;;;;;;;;;;;;;;;;;;;;
S02;base;5;3;149.5;18;65;50;;;;;;;;;;;;;;;;;;;;;;;;;;
S02;base;5;3;244;19;20;10;;;;;;;;;;;;;;;;;;;;;;;;;;
S02;base;5;3;237.5;20;25;25;;;;;;;;;;;;;;;;;;;;;;;;;;
S02;base;1;4;225;1;30;0;;;;;;;;;;;;;;;;;;;;;;;;;;
S02;base;1;4;249;2;10;0;;;;;;;;;;;;;;;;;;;;;;;;;;
S02;base;1;4;244.5;3;15;0;;;;;;;;;;;;;;;;;;;;;;;;;;
S02;base;1;4;159;4;60;0;;;;;;;;;;;;;;;;;;;;;;;;;;
S02;base;1;4;302;5;90;0;;;;;;;;;;;;;;;;;;;;;;;;;;
S02;base;1;4;302;6;90;0;;;;;;;;;;;;;;;;;;;;;;;;;;
S02;base;1;4;302;7;90;0;;;;;;;;;;;;;;;;;;;;;;;;;;
S02;base;1;4;302;8;90;0;;;;;;;;;;;;;;;;;;;;;;;;;;
S02;base;1;4;284;9;60;0;;;;;;;;;;;;;;;;;;;;;;;;;;
S02;base;1;4;332;10;40;0;;;;;;;;;;;;;;;;;;;;;;;;;;
S02;base;1;4;220;11;80;0;;;;;;;;;;;;;;;;;;;;;;;;;;
S02;base;1;4;284;12;60;0;;;;;;;;;;;;;;;;;;;;;;;;;;
S02;base;1;4;110;13;80;0;;;;;;;;;;;;;;;;;;;;;;;;;;
S02;base;1;4;259.5;14;15;0;;;;;;;;;;;;;;;;;;;;;;;;;;
S02;base;1;4;259.5;15;15;0;;;;;;;;;;;;;;;;;;;;;;;;;;
S02;base;1;4;254;16;20;0;;;;;;;;;;;;;;;;;;;;;;;;;;
S02;base;1;4;309;17;20;0;;;;;;;;;;;;;;;;;;;;;;;;;;
S02;base;1;4;229;18;60;0;;;;;;;;;;;;;;;;;;;;;;;;;;
S02;base;1;4;277;19;40;0;;;;;;;;;;;;;;;;;;;;;;;;;;
S02;base;1;4;214.5;20;65;0;;;;;;;;;;;;;;;;;;;;;;;;;;
S02;base;2;4;279;1;20;30;;;;;;;;;;;;;;;;;;;;;;;;;;
S02;base;2;4;199;2;60;10;;;;;;;;;;;;;;;;;;;;;;;;;;
S02;base;2;4;272.5;3;25;15;;;;;;;;;;;;;;;;;;;;;;;;;;
S02;base;2;4;225;4;50;60;;;;;;;;;;;;;;;;;;;;;;;;;;
S02;base;2;4;302;5;90;90;;;;;;;;;;;;;;;;;;;;;;;;;;
S02;base;2;4;302;6;90;90;;;;;;;;;;;;;;;;;;;;;;;;;;
S02;base;2;4;302;7;90;90;;;;;;;;;;;;;;;;;;;;;;;;;;
S02;base;2;4;302;8;90;90;;;;;;;;;;;;;;;;;;;;;;;;;;
S02;base;2;4;197.5;9;75;60;;;;;;;;;;;;;;;;;;;;;;;;;;
S02;base;2;4;270;10;50;40;;;;;;;;;;;;;;;;;;;;;;;;;;
S02;base;2;4;329.5;11;15;80;;;;;;;;;;;;;;;;;;;;;;;;;;
S02;base;2;4;244;12;60;60;;;;;;;;;;;;;;;;;;;;;;;;;;
S02;base;2;4;187.5;13;15;80;;;;;;;;;;;;;;;;;;;;;;;;;;
S02;base;2;4;189.42;14;13;15;;;;;;;;;;;;;;;;;;;;;;;;;;
S02;base;2;4;187.5;15;15;15;;;;;;;;;;;;;;;;;;;;;;;;;;
S02;base;2;4;187.5;16;15;20;;;;;;;;;;;;;;;;;;;;;;;;;;
S02;base;2;4;294.5;17;15;20;;;;;;;;;;;;;;;;;;;;;;;;;;
S02;base;2;4;162.5;18;75;60;;;;;;;;;;;;;;;;;;;;;;;;;;
S02;base;2;4;289;19;20;40;;;;;;;;;;;;;;;;;;;;;;;;;;
S02;base;2;4;222.5;20;55;65;;;;;;;;;;;;;;;;;;;;;;;;;;
S02;base;3;4;374.5;1;15;20;;;;;;;;;;;;;;;;;;;;;;;;;;
S02;base;3;4;225;2;80;60;;;;;;;;;;;;;;;;;;;;;;;;;;
S02;base;3;4;187;3;90;25;;;;;;;;;;;;;;;;;;;;;;;;;;
S02;base;3;4;289;4;60;50;;;;;;;;;;;;;;;;;;;;;;;;;;
S02;base;3;4;302;5;90;90;;;;;;;;;;;;;;;;;;;;;;;;;;
S02;base;3;4;302;6;90;90;;;;;;;;;;;;;;;;;;;;;;;;;;
S02;base;3;4;302;7;90;90;;;;;;;;;;;;;;;;;;;;;;;;;;
S02;base;3;4;302;8;90;90;;;;;;;;;;;;;;;;;;;;;;;;;;
S02;base;3;4;294.5;9;15;75;;;;;;;;;;;;;;;;;;;;;;;;;;
S02;base;3;4;235;10;50;50;;;;;;;;;;;;;;;;;;;;;;;;;;
S02;base;3;4;257;11;40;15;;;;;;;;;;;;;;;;;;;;;;;;;;
S02;base;3;4;209;12;60;60;;;;;;;;;;;;;;;;;;;;;;;;;;
S02;base;3;4;202;13;20;15;;;;;;;;;;;;;;;;;;;;;;;;;;
S02;base;3;4;209.42;14;13;13;;;;;;;;;;;;;;;;;;;;;;;;;;
S02;base;3;4;207.5;15;15;15;;;;;;;;;;;;;;;;;;;;;;;;;;
S02;base;3;4;188;16;30;15;;;;;;;;;;;;;;;;;;;;;;;;;;
S02;base;3;4;264;17;10;15;;;;;;;;;;;;;;;;;;;;;;;;;;
S02;base;3;4;159.5;18;65;75;;;;;;;;;;;;;;;;;;;;;;;;;;
S02;base;3;4;264;19;10;20;;;;;;;;;;;;;;;;;;;;;;;;;;
S02;base;3;4;211.5;20;45;55;;;;;;;;;;;;;;;;;;;;;;;;;;
S02;base;4;4;229.5;1;15;15;;;;;;;;;;;;;;;;;;;;;;;;;;
S02;base;4;4;234;2;10;80;;;;;;;;;;;;;;;;;;;;;;;;;;
S02;base;4;4;229.5;3;15;90;;;;;;;;;;;;;;;;;;;;;;;;;;
S02;base;4;4;144;4;60;60;;;;;;;;;;;;;;;;;;;;;;;;;;
S02;base;4;4;302;5;90;90;;;;;;;;;;;;;;;;;;;;;;;;;;
S02;base;4;4;302;6;90;90;;;;;;;;;;;;;;;;;;;;;;;;;;
S02;base;4;4;302;7;90;90;;;;;;;;;;;;;;;;;;;;;;;;;;
S02;base;4;4;302;8;90;90;;;;;;;;;;;;;;;;;;;;;;;;;;
S02;base;4;4;226.5;9;45;15;;;;;;;;;;;;;;;;;;;;;;;;;;
S02;base;4;4;215;10;50;50;;;;;;;;;;;;;;;;;;;;;;;;;;
S02;base;4;4;237;11;40;40;;;;;;;;;;;;;;;;;;;;;;;;;;
S02;base;4;4;279;12;10;60;;;;;;;;;;;;;;;;;;;;;;;;;;
S02;base;4;4;187.42;13;13;20;;;;;;;;;;;;;;;;;;;;;;;;;;
S02;base;4;4;187.42;14;13;13;;;;;;;;;;;;;;;;;;;;;;;;;;
S02;base;4;4;185.5;15;15;15;;;;;;;;;;;;;;;;;;;;;;;;;;
S02;base;4;4;185.5;16;15;30;;;;;;;;;;;;;;;;;;;;;;;;;;
S02;base;4;4;182.5;17;15;10;;;;;;;;;;;;;;;;;;;;;;;;;;
S02;base;4;4;177;18;20;65;;;;;;;;;;;;;;;;;;;;;;;;;;
S02;base;4;4;190.5;19;5;10;;;;;;;;;;;;;;;;;;;;;;;;;;
S02;base;4;4;184.42;20;13;45;;;;;;;;;;;;;;;;;;;;;;;;;;
S02;base;5;4;229;1;20;15;;;;;;;;;;;;;;;;;;;;;;;;;;
S02;base;5;4;239;2;10;10;;;;;;;;;;;;;;;;;;;;;;;;;;
S02;base;5;4;229;3;20;15;;;;;;;;;;;;;;;;;;;;;;;;;;
S02;base;5;4;162.5;4;55;60;;;;;;;;;;;;;;;;;;;;;;;;;;
S02;base;5;4;302;5;90;90;;;;;;;;;;;;;;;;;;;;;;;;;;
S02;base;5;4;302;6;90;90;;;;;;;;;;;;;;;;;;;;;;;;;;
S02;base;5;4;302;7;90;90;;;;;;;;;;;;;;;;;;;;;;;;;;
S02;base;5;4;302;8;90;90;;;;;;;;;;;;;;;;;;;;;;;;;;
S02;base;5;4;234;9;20;45;;;;;;;;;;;;;;;;;;;;;;;;;;
S02;base;5;4;202;10;40;50;;;;;;;;;;;;;;;;;;;;;;;;;;
S02;base;5;4;180;11;50;40;;;;;;;;;;;;;;;;;;;;;;;;;;
S02;base;5;4;250;12;0;10;;;;;;;;;;;;;;;;;;;;;;;;;;
S02;base;5;4;199.5;13;15;13;;;;;;;;;;;;;;;;;;;;;;;;;;
S02;base;5;4;199.5;14;15;13;;;;;;;;;;;;;;;;;;;;;;;;;;
S02;base;5;4;199.5;15;15;15;;;;;;;;;;;;;;;;;;;;;;;;;;
S02;base;5;4;187.5;16;25;15;;;;;;;;;;;;;;;;;;;;;;;;;;
S02;base;5;4;173.5;17;5;15;;;;;;;;;;;;;;;;;;;;;;;;;;
S02;base;5;4;170;18;10;20;;;;;;;;;;;;;;;;;;;;;;;;;;
S02;base;5;4;170;19;10;5;;;;;;;;;;;;;;;;;;;;;;;;;;
S02;base;5;4;169.18;20;11;13;;;;;;;;;;;;;;;;;;;;;;;;;;
S02;base;1;5;314.5;1;15;0;;;;;;;;;;;;;;;;;;;;;;;;;;
S02;base;1;5;295;2;30;0;;;;;;;;;;;;;;;;;;;;;;;;;;
S02;base;1;5;127;3;90;0;;;;;;;;;;;;;;;;;;;;;;;;;;
S02;base;1;5;255;4;50;0;;;;;;;;;;;;;;;;;;;;;;;;;;
S02;base;1;5;302;5;90;0;;;;;;;;;;;;;;;;;;;;;;;;;;
S02;base;1;5;302;6;90;0;;;;;;;;;;;;;;;;;;;;;;;;;;
S02;base;1;5;302;7;90;0;;;;;;;;;;;;;;;;;;;;;;;;;;
S02;base;1;5;302;8;90;0;;;;;;;;;;;;;;;;;;;;;;;;;;
S02;base;1;5;284;9;60;0;;;;;;;;;;;;;;;;;;;;;;;;;;
S02;base;1;5;332;10;40;0;;;;;;;;;;;;;;;;;;;;;;;;;;
S02;base;1;5;220;11;80;0;;;;;;;;;;;;;;;;;;;;;;;;;;
S02;base;1;5;284;12;60;0;;;;;;;;;;;;;;;;;;;;;;;;;;
S02;base;1;5;142.5;13;75;0;;;;;;;;;;;;;;;;;;;;;;;;;;
S02;base;1;5;269;14;20;0;;;;;;;;;;;;;;;;;;;;;;;;;;
S02;base;1;5;274.5;15;15;0;;;;;;;;;;;;;;;;;;;;;;;;;;
S02;base;1;5;246.5;16;35;0;;;;;;;;;;;;;;;;;;;;;;;;;;
S02;base;1;5;340.5;17;15;0;;;;;;;;;;;;;;;;;;;;;;;;;;
S02;base;1;5;240.5;18;65;0;;;;;;;;;;;;;;;;;;;;;;;;;;
S02;base;1;5;255;19;60;0;;;;;;;;;;;;;;;;;;;;;;;;;;
S02;base;1;5;221.78;20;71;0;;;;;;;;;;;;;;;;;;;;;;;;;;
S02;base;2;5;279.5;1;15;15;;;;;;;;;;;;;;;;;;;;;;;;;;
S02;base;2;5;164;2;70;30;;;;;;;;;;;;;;;;;;;;;;;;;;
S02;base;2;5;279.5;3;15;90;;;;;;;;;;;;;;;;;;;;;;;;;;
S02;base;2;5;220;4;50;50;;;;;;;;;;;;;;;;;;;;;;;;;;
S02;base;2;5;302;5;90;90;;;;;;;;;;;;;;;;;;;;;;;;;;
S02;base;2;5;302;6;90;90;;;;;;;;;;;;;;;;;;;;;;;;;;
S02;base;2;5;302;7;90;90;;;;;;;;;;;;;;;;;;;;;;;;;;
S02;base;2;5;302;8;90;90;;;;;;;;;;;;;;;;;;;;;;;;;;
S02;base;2;5;264;9;60;60;;;;;;;;;;;;;;;;;;;;;;;;;;
S02;base;2;5;290;10;50;40;;;;;;;;;;;;;;;;;;;;;;;;;;
S02;base;2;5;312;11;40;80;;;;;;;;;;;;;;;;;;;;;;;;;;
S02;base;2;5;234;12;70;60;;;;;;;;;;;;;;;;;;;;;;;;;;
S02;base;2;5;212.5;13;25;75;;;;;;;;;;;;;;;;;;;;;;;;;;
S02;base;2;5;219;14;20;20;;;;;;;;;;;;;;;;;;;;;;;;;;
S02;base;2;5;224.5;15;15;15;;;;;;;;;;;;;;;;;;;;;;;;;;
S02;base;2;5;196.5;16;35;35;;;;;;;;;;;;;;;;;;;;;;;;;;
S02;base;2;5;349.5;17;15;15;;;;;;;;;;;;;;;;;;;;;;;;;;
S02;base;2;5;234;18;70;65;;;;;;;;;;;;;;;;;;;;;;;;;;
S02;base;2;5;234;19;70;60;;;;;;;;;;;;;;;;;;;;;;;;;;
S02;base;2;5;249.5;20;65;71;;;;;;;;;;;;;;;;;;;;;;;;;;
S02;base;3;5;254.5;1;15;15;;;;;;;;;;;;;;;;;;;;;;;;;;
S02;base;3;5;235;2;30;70;;;;;;;;;;;;;;;;;;;;;;;;;;
S02;base;3;5;235;3;30;15;;;;;;;;;;;;;;;;;;;;;;;;;;
S02;base;3;5;195;4;50;50;;;;;;;;;;;;;;;;;;;;;;;;;;
S02;base;3;5;302;5;90;90;;;;;;;;;;;;;;;;;;;;;;;;;;
S02;base;3;5;302;6;90;90;;;;;;;;;;;;;;;;;;;;;;;;;;
S02;base;3;5;302;7;90;90;;;;;;;;;;;;;;;;;;;;;;;;;;
S02;base;3;5;302;8;90;90;;;;;;;;;;;;;;;;;;;;;;;;;;
S02;base;3;5;284;9;60;60;;;;;;;;;;;;;;;;;;;;;;;;;;
S02;base;3;5;310;10;50;50;;;;;;;;;;;;;;;;;;;;;;;;;;
S02;base;3;5;310;11;50;40;;;;;;;;;;;;;;;;;;;;;;;;;;
S02;base;3;5;220;12;80;70;;;;;;;;;;;;;;;;;;;;;;;;;;
S02;base;3;5;213.5;13;15;25;;;;;;;;;;;;;;;;;;;;;;;;;;
S02;base;3;5;214.48;14;14;20;;;;;;;;;;;;;;;;;;;;;;;;;;
S02;base;3;5;213.5;15;15;15;;;;;;;;;;;;;;;;;;;;;;;;;;
S02;base;3;5;176;16;40;35;;;;;;;;;;;;;;;;;;;;;;;;;;
S02;base;3;5;325.5;17;15;15;;;;;;;;;;;;;;;;;;;;;;;;;;
S02;base;3;5;225.5;18;65;70;;;;;;;;;;;;;;;;;;;;;;;;;;
S02;base;3;5;266;19;50;70;;;;;;;;;;;;;;;;;;;;;;;;;;
S02;base;3;5;222.48;20;66;65;;;;;;;;;;;;;;;;;;;;;;;;;;
S02;base;4;5;294.5;1;15;15;;;;;;;;;;;;;;;;;;;;;;;;;;
S02;base;4;5;145;2;80;30;;;;;;;;;;;;;;;;;;;;;;;;;;
S02;base;4;5;275;3;30;30;;;;;;;;;;;;;;;;;;;;;;;;;;
S02;base;4;5;257;4;40;50;;;;;;;;;;;;;;;;;;;;;;;;;;
S02;base;4;5;302;5;90;90;;;;;;;;;;;;;;;;;;;;;;;;;;
S02;base;4;5;302;6;90;90;;;;;;;;;;;;;;;;;;;;;;;;;;
S02;base;4;5;302;7;90;90;;;;;;;;;;;;;;;;;;;;;;;;;;
S02;base;4;5;302;8;90;90;;;;;;;;;;;;;;;;;;;;;;;;;;
S02;base;4;5;302.5;9;55;60;;;;;;;;;;;;;;;;;;;;;;;;;;
S02;base;4;5;315;10;50;50;;;;;;;;;;;;;;;;;;;;;;;;;;
S02;base;4;5;315;11;50;50;;;;;;;;;;;;;;;;;;;;;;;;;;
S02;base;4;5;187;12;90;80;;;;;;;;;;;;;;;;;;;;;;;;;;
S02;base;4;5;202.5;13;15;15;;;;;;;;;;;;;;;;;;;;;;;;;;
S02;base;4;5;202.5;14;15;14;;;;;;;;;;;;;;;;;;;;;;;;;;
S02;base;4;5;204.42;15;13;15;;;;;;;;;;;;;;;;;;;;;;;;;;
S02;base;4;5;183;16;30;40;;;;;;;;;;;;;;;;;;;;;;;;;;
S02;base;4;5;264.5;17;15;15;;;;;;;;;;;;;;;;;;;;;;;;;;
S02;base;4;5;179;18;60;65;;;;;;;;;;;;;;;;;;;;;;;;;;
S02;base;4;5;272.5;19;5;50;;;;;;;;;;;;;;;;;;;;;;;;;;
S02;base;4;5;192.5;20;55;66;;;;;;;;;;;;;;;;;;;;;;;;;;
S02;base;5;5;204.5;1;15;15;;;;;;;;;;;;;;;;;;;;;;;;;;
S02;base;5;5;212.5;2;5;80;;;;;;;;;;;;;;;;;;;;;;;;;;
S02;base;5;5;204.5;3;15;30;;;;;;;;;;;;;;;;;;;;;;;;;;
S02;base;5;5;167;4;40;40;;;;;;;;;;;;;;;;;;;;;;;;;;
S02;base;5;5;302;5;90;90;;;;;;;;;;;;;;;;;;;;;;;;;;
S02;base;5;5;302;6;90;90;;;;;;;;;;;;;;;;;;;;;;;;;;
S02;base;5;5;302;7;90;90;;;;;;;;;;;;;;;;;;;;;;;;;;
S02;base;5;5;302;8;90;90;;;;;;;;;;;;;;;;;;;;;;;;;;
S02;base;5;5;297;9;40;55;;;;;;;;;;;;;;;;;;;;;;;;;;
S02;base;5;5;334.5;10;15;50;;;;;;;;;;;;;;;;;;;;;;;;;;
S02;base;5;5;275;11;50;50;;;;;;;;;;;;;;;;;;;;;;;;;;
S02;base;5;5;105;12;100;90;;;;;;;;;;;;;;;;;;;;;;;;;;
S02;base;5;5;192.5;13;15;15;;;;;;;;;;;;;;;;;;;;;;;;;;
S02;base;5;5;192.5;14;15;15;;;;;;;;;;;;;;;;;;;;;;;;;;
S02;base;5;5;194.42;15;13;13;;;;;;;;;;;;;;;;;;;;;;;;;;
S02;base;5;5;187;16;20;30;;;;;;;;;;;;;;;;;;;;;;;;;;
S02;base;5;5;224;17;10;15;;;;;;;;;;;;;;;;;;;;;;;;;;
S02;base;5;5;119.5;18;65;60;;;;;;;;;;;;;;;;;;;;;;;;;;
S02;base;5;5;227.5;19;5;5;;;;;;;;;;;;;;;;;;;;;;;;;;
S02;base;5;5;224;20;10;55;;;;;;;;;;;;;;;;;;;;;;;;;;
S03;strongR;1;1;197.5;1;15;0;;;;;;;;;;;;;;;;;;;;;;;;;;
S03;strongR;1;1;192;2;20;0;;;;;;;;;;;;;;;;;;;;;;;;;;
S03;strongR;1;1;199.42;3;13;0;;;;;;;;;;;;;;;;;;;;;;;;;;
S03;strongR;1;1;192;4;20;0;;;;;;;;;;;;;;;;;;;;;;;;;;
S03;strongR;1;1;197.5;5;15;0;;;;;;;;;;;;;;;;;;;;;;;;;;
S03;strongR;1;1;199.42;6;13;0;;;;;;;;;;;;;;;;;;;;;;;;;;
S03;strongR;1;1;197.5;7;15;0;;;;;;;;;;;;;;;;;;;;;;;;;;
S03;strongR;1;1;185.5;8;25;0;;;;;;;;;;;;;;;;;;;;;;;;;;
S03;strongR;1;1;278;9;70;0;;;;;;;;;;;;;;;;;;;;;;;;;;
S03;strongR;1;1;254.62;10;77;0;;;;;;;;;;;;;;;;;;;;;;;;;;
S03;strongR;1;1;197.92;11;92;0;;;;;;;;;;;;;;;;;;;;;;;;;;
S03;strongR;1;1;381.5;12;25;0;;;;;;;;;;;;;;;;;;;;;;;;;;
S03;strongR;1;1;209.5;13;25;0;;;;;;;;;;;;;;;;;;;;;;;;;;
S03;strongR;1;1;224.32;14;12;0;;;;;;;;;;;;;;;;;;;;;;;;;;
S03;strongR;1;1;202;15;30;0;;;;;;;;;;;;;;;;;;;;;;;;;;
S03;strongR;1;1;209.5;16;25;0;;;;;;;;;;;;;;;;;;;;;;;;;;
S03;strongR;2;1;182.5;1;45;15;;;;;;;;;;;;;;;;;;;;;;;;;;
S03;strongR;2;1;223.78;2;21;20;;;;;;;;;;;;;;;;;;;;;;;;;;
S03;strongR;2;1;231.48;3;14;13;;;;;;;;;;;;;;;;;;;;;;;;;;
S03;strongR;2;1;223.78;4;21;20;;;;;;;;;;;;;;;;;;;;;;;;;;
S03;strongR;2;1;202.5;5;25;15;;;;;;;;;;;;;;;;;;;;;;;;;;
S03;strongR;2;1;215.48;6;14;13;;;;;;;;;;;;;;;;;;;;;;;;;;
S03;strongR;2;1;213.48;7;16;15;;;;;;;;;;;;;;;;;;;;;;;;;;
S03;strongR;2;1;195;8;30;25;;;;;;;;;;;;;;;;;;;;;;;;;;
S03;strongR;2;1;283.78;9;71;70;;;;;;;;;;;;;;;;;;;;;;;;;;
S03;strongR;2;1;260.12;10;78;77;;;;;;;;;;;;;;;;;;;;;;;;;;
S03;strongR;2;1;198.68;11;94;92;;;;;;;;;;;;;;;;;;;;;;;;;;
S03;strongR;2;1;383;12;30;25;;;;;;;;;;;;;;;;;;;;;;;;;;
S03;strongR;2;1;240;13;30;25;;;;;;;;;;;;;;;;;;;;;;;;;;
S03;strongR;2;1;260.48;14;14;12;;;;;;;;;;;;;;;;;;;;;;;;;;
S03;strongR;2;1;238.38;15;31;30;;;;;;;;;;;;;;;;;;;;;;;;;;
S03;strongR;2;1;187.5;16;55;25;;;;;;;;;;;;;;;;;;;;;;;;;;
S03;strongR;3;1;181.72;1;48;45;;;;;;;;;;;;;;;;;;;;;;;;;;
S03;strongR;3;1;228.52;2;22;21;;;;;;;;;;;;;;;;;;;;;;;;;;
S03;strongR;3;1;236.5;3;15;14;;;;;;;;;;;;;;;;;;;;;;;;;;
S03;strongR;3;1;228.52;4;22;21;;;;;;;;;;;;;;;;;;;;;;;;;;
S03;strongR;3;1;198;5;40;25;;;;;;;;;;;;;;;;;;;;;;;;;;
S03;strongR;3;1;235.5;6;15;14;;;;;;;;;;;;;;;;;;;;;;;;;;
S03;strongR;3;1;230;7;20;16;;;;;;;;;;;;;;;;;;;;;;;;;;
S03;strongR;3;1;214.38;8;31;30;;;;;;;;;;;;;;;;;;;;;;;;;;
S03;strongR;3;1;266;9;80;71;;;;;;;;;;;;;;;;;;;;;;;;;;
S03;strongR;3;1;269.58;10;79;78;;;;;;;;;;;;;;;;;;;;;;;;;;
S03;strongR;3;1;203.28;11;96;94;;;;;;;;;;;;;;;;;;;;;;;;;;
S03;strongR;3;1;394.38;12;31;30;;;;;;;;;;;;;;;;;;;;;;;;;;
S03;strongR;3;1;275.38;13;31;30;;;;;;;;;;;;;;;;;;;;;;;;;;
S03;strongR;3;1;291;14;20;14;;;;;;;;;;;;;;;;;;;;;;;;;;
S03;strongR;3;1;224.5;15;55;31;;;;;;;;;;;;;;;;;;;;;;;;;;
S03;strongR;3;1;208.18;16;61;55;;;;;;;;;;;;;;;;;;;;;;;;;;
S03;strongR;4;1;183.38;1;49;48;;;;;;;;;;;;;;;;;;;;;;;;;;
S03;strongR;4;1;231.22;2;23;22;;;;;;;;;;;;;;;;;;;;;;;;;;
S03;strongR;4;1;239.48;3;16;15;;;;;;;;;;;;;;;;;;;;;;;;;;
S03;strongR;4;1;231.22;4;23;22;;;;;;;;;;;;;;;;;;;;;;;;;;
S03;strongR;4;1;204.98;5;41;40;;;;;;;;;;;;;;;;;;;;;;;;;;
S03;strongR;4;1;243.48;6;16;15;;;;;;;;;;;;;;;;;;;;;;;;;;
S03;strongR;4;1;232.5;7;25;20;;;;;;;;;;;;;;;;;;;;;;;;;;
S03;strongR;4;1;220.02;8;33;31;;;;;;;;;;;;;;;;;;;;;;;;;;
S03;strongR;4;1;242;9;90;80;;;;;;;;;;;;;;;;;;;;;;;;;;
S03;strongR;4;1;280;10;80;79;;;;;;;;;;;;;;;;;;;;;;;;;;
S03;strongR;4;1;208.72;11;98;96;;;;;;;;;;;;;;;;;;;;;;;;;;
S03;strongR;4;1;406.72;12;32;31;;;;;;;;;;;;;;;;;;;;;;;;;;
S03;strongR;4;1;287.72;13;32;31;;;;;;;;;;;;;;;;;;;;;;;;;;
S03;strongR;4;1;303.78;14;21;20;;;;;;;;;;;;;;;;;;;;;;;;;;
S03;strongR;4;1;210.5;15;65;55;;;;;;;;;;;;;;;;;;;;;;;;;;
S03;strongR;4;1;216.42;16;63;61;;;;;;;;;;;;;;;;;;;;;;;;;;
S03;strongR;5;1;185;1;50;49;;;;;;;;;;;;;;;;;;;;;;;;;;
S03;strongR;5;1;233.88;2;24;23;;;;;;;;;;;;;;;;;;;;;;;;;;
S03;strongR;5;1;242.42;3;17;16;;;;;;;;;;;;;;;;;;;;;;;;;;
S03;strongR;5;1;233.88;4;24;23;;;;;;;;;;;;;;;;;;;;;;;;;;
S03;strongR;5;1;206.92;5;42;41;;;;;;;;;;;;;;;;;;;;;;;;;;
S03;strongR;5;1;246.42;6;17;16;;;;;;;;;;;;;;;;;;;;;;;;;;
S03;strongR;5;1;235.08;7;26;25;;;;;;;;;;;;;;;;;;;;;;;;;;
S03;strongR;5;1;222.28;8;34;33;;;;;;;;;;;;;;;;;;;;;;;;;;
S03;strongR;5;1;287.5;9;95;90;;;;;;;;;;;;;;;;;;;;;;;;;;
S03;strongR;5;1;342.38;10;81;80;;;;;;;;;;;;;;;;;;;;;;;;;;
S03;strongR;5;1;266;11;100;98;;;;;;;;;;;;;;;;;;;;;;;;;;
S03;strongR;5;1;308;12;90;32;;;;;;;;;;;;;;;;;;;;;;;;;;
S03;strongR;5;1;292.02;13;33;32;;;;;;;;;;;;;;;;;;;;;;;;;;
S03;strongR;5;1;307.22;14;23;21;;;;;;;;;;;;;;;;;;;;;;;;;;
S03;strongR;5;1;213.48;15;66;65;;;;;;;;;;;;;;;;;;;;;;;;;;
S03;strongR;5;1;216.5;16;65;63;;;;;;;;;;;;;;;;;;;;;;;;;;
S03;strongR;1;2;180.5;1;5;0;;;;;;;;;;;;;;;;;;;;;;;;;;
S03;strongR;1;2;172.5;2;15;0;;;;;;;;;;;;;;;;;;;;;;;;;;
S03;strongR;1;2;174.42;3;13;0;;;;;;;;;;;;;;;;;;;;;;;;;;
S03;strongR;1;2;177;4;10;0;;;;;;;;;;;;;;;;;;;;;;;;;;
S03;strongR;1;2;174.5;5;25;0;;;;;;;;;;;;;;;;;;;;;;;;;;
S03;strongR;1;2;191;6;10;0;;;;;;;;;;;;;;;;;;;;;;;;;;
S03;strongR;1;2;189.32;7;12;0;;;;;;;;;;;;;;;;;;;;;;;;;;
S03;strongR;1;2;191;8;10;0;;;;;;;;;;;;;;;;;;;;;;;;;;
S03;strongR;1;2;276;9;30;0;;;;;;;;;;;;;;;;;;;;;;;;;;
S03;strongR;1;2;283.5;10;25;0;;;;;;;;;;;;;;;;;;;;;;;;;;
S03;strongR;1;2;83.28;11;96;0;;;;;;;;;;;;;;;;;;;;;;;;;;
S03;strongR;1;2;295.5;12;15;0;;;;;;;;;;;;;;;;;;;;;;;;;;
S03;strongR;1;2;199.5;13;15;0;;;;;;;;;;;;;;;;;;;;;;;;;;
S03;strongR;1;2;202.32;14;12;0;;;;;;;;;;;;;;;;;;;;;;;;;;
S03;strongR;1;2;180;15;30;0;;;;;;;;;;;;;;;;;;;;;;;;;;
S03;strongR;1;2;201.42;16;13;0;;;;;;;;;;;;;;;;;;;;;;;;;;
S03;strongR;2;2;185.5;1;15;5;;;;;;;;;;;;;;;;;;;;;;;;;;
S03;strongR;2;2;184.48;2;16;15;;;;;;;;;;;;;;;;;;;;;;;;;;
S03;strongR;2;2;186.48;3;14;13;;;;;;;;;;;;;;;;;;;;;;;;;;
S03;strongR;2;2;189.18;4;11;10;;;;;;;;;;;;;;;;;;;;;;;;;;
S03;strongR;2;2;179;5;30;25;;;;;;;;;;;;;;;;;;;;;;;;;;
S03;strongR;2;2;202.18;6;11;10;;;;;;;;;;;;;;;;;;;;;;;;;;
S03;strongR;2;2;198.5;7;15;12;;;;;;;;;;;;;;;;;;;;;;;;;;
S03;strongR;2;2;200.42;8;13;10;;;;;;;;;;;;;;;;;;;;;;;;;;
S03;strongR;2;2;276;9;40;30;;;;;;;;;;;;;;;;;;;;;;;;;;
S03;strongR;2;2;298.62;10;27;25;;;;;;;;;;;;;;;;;;;;;;;;;;
S03;strongR;2;2;97.02;11;97;96;;;;;;;;;;;;;;;;;;;;;;;;;;
S03;strongR;2;2;308;12;20;15;;;;;;;;;;;;;;;;;;;;;;;;;;
S03;strongR;2;2;209.48;13;16;15;;;;;;;;;;;;;;;;;;;;;;;;;;
S03;strongR;2;2;212.42;14;13;12;;;;;;;;;;;;;;;;;;;;;;;;;;
S03;strongR;2;2;189.38;15;31;30;;;;;;;;;;;;;;;;;;;;;;;;;;
S03;strongR;2;2;203.78;16;21;13;;;;;;;;;;;;;;;;;;;;;;;;;;
S03;strongR;3;2;188.48;1;16;15;;;;;;;;;;;;;;;;;;;;;;;;;;
S03;strongR;3;2;187.42;2;17;16;;;;;;;;;;;;;;;;;;;;;;;;;;
S03;strongR;3;2;189.5;3;15;14;;;;;;;;;;;;;;;;;;;;;;;;;;
S03;strongR;3;2;192.32;4;12;11;;;;;;;;;;;;;;;;;;;;;;;;;;
S03;strongR;3;2;179.5;5;35;30;;;;;;;;;;;;;;;;;;;;;;;;;;
S03;strongR;3;2;209.42;6;13;11;;;;;;;;;;;;;;;;;;;;;;;;;;
S03;strongR;3;2;206.48;7;16;15;;;;;;;;;;;;;;;;;;;;;;;;;;
S03;strongR;3;2;208.48;8;14;13;;;;;;;;;;;;;;;;;;;;;;;;;;
S03;strongR;3;2;253;9;60;40;;;;;;;;;;;;;;;;;;;;;;;;;;
S03;strongR;3;2;319;10;30;27;;;;;;;;;;;;;;;;;;;;;;;;;;
S03;strongR;3;2;117.72;11;98;97;;;;;;;;;;;;;;;;;;;;;;;;;;
S03;strongR;3;2;331.78;12;21;20;;;;;;;;;;;;;;;;;;;;;;;;;;
S03;strongR;3;2;225.42;13;17;16;;;;;;;;;;;;;;;;;;;;;;;;;;
S03;strongR;3;2;228.48;14;14;13;;;;;;;;;;;;;;;;;;;;;;;;;;
S03;strongR;3;2;204.72;15;32;31;;;;;;;;;;;;;;;;;;;;;;;;;;
S03;strongR;3;2;199.5;16;35;21;;;;;;;;;;;;;;;;;;;;;;;;;;
S03;strongR;4;2;191.42;1;17;16;;;;;;;;;;;;;;;;;;;;;;;;;;
S03;strongR;4;2;190.32;2;18;17;;;;;;;;;;;;;;;;;;;;;;;;;;
S03;strongR;4;2;192.48;3;16;15;;;;;;;;;;;;;;;;;;;;;;;;;;
S03;strongR;4;2;195.42;4;13;12;;;;;;;;;;;;;;;;;;;;;;;;;;
S03;strongR;4;2;181;5;40;35;;;;;;;;;;;;;;;;;;;;;;;;;;
S03;strongR;4;2;219.48;6;14;13;;;;;;;;;;;;;;;;;;;;;;;;;;
S03;strongR;4;2;213;7;20;16;;;;;;;;;;;;;;;;;;;;;;;;;;
S03;strongR;4;2;218.5;8;15;14;;;;;;;;;;;;;;;;;;;;;;;;;;
S03;strongR;4;2;268;9;70;60;;;;;;;;;;;;;;;;;;;;;;;;;;
S03;strongR;4;2;311.5;10;55;30;;;;;;;;;;;;;;;;;;;;;;;;;;
S03;strongR;4;2;158.38;11;99;98;;;;;;;;;;;;;;;;;;;;;;;;;;
S03;strongR;4;2;364;12;30;21;;;;;;;;;;;;;;;;;;;;;;;;;;
S03;strongR;4;2;230.32;13;18;17;;;;;;;;;;;;;;;;;;;;;;;;;;
S03;strongR;4;2;231.42;14;17;14;;;;;;;;;;;;;;;;;;;;;;;;;;
S03;strongR;4;2;209.02;15;33;32;;;;;;;;;;;;;;;;;;;;;;;;;;
S03;strongR;4;2;203.68;16;36;35;;;;;;;;;;;;;;;;;;;;;;;;;;
S03;strongR;5;2;194.32;1;18;17;;;;;;;;;;;;;;;;;;;;;;;;;;
S03;strongR;5;2;193.18;2;19;18;;;;;;;;;;;;;;;;;;;;;;;;;;
S03;strongR;5;2;195.42;3;17;16;;;;;;;;;;;;;;;;;;;;;;;;;;
S03;strongR;5;2;198.48;4;14;13;;;;;;;;;;;;;;;;;;;;;;;;;;
S03;strongR;5;2;186.98;5;41;40;;;;;;;;;;;;;;;;;;;;;;;;;;
S03;strongR;5;2;226.5;6;15;14;;;;;;;;;;;;;;;;;;;;;;;;;;
S03;strongR;5;2;214.5;7;25;20;;;;;;;;;;;;;;;;;;;;;;;;;;
S03;strongR;5;2;225.48;8;16;15;;;;;;;;;;;;;;;;;;;;;;;;;;
S03;strongR;5;2;223;9;90;70;;;;;;;;;;;;;;;;;;;;;;;;;;
S03;strongR;5;2;325;10;60;55;;;;;;;;;;;;;;;;;;;;;;;;;;
S03;strongR;5;2;181;11;100;99;;;;;;;;;;;;;;;;;;;;;;;;;;
S03;strongR;5;2;389.38;12;31;30;;;;;;;;;;;;;;;;;;;;;;;;;;
S03;strongR;5;2;233.18;13;19;18;;;;;;;;;;;;;;;;;;;;;;;;;;
S03;strongR;5;2;234.32;14;18;17;;;;;;;;;;;;;;;;;;;;;;;;;;
S03;strongR;5;2;211.28;15;34;33;;;;;;;;;;;;;;;;;;;;;;;;;;
S03;strongR;5;2;205.82;16;37;36;;;;;;;;;;;;;;;;;;;;;;;;;;
S03;strongR;1;3;173;1;0;0;;;;;;;;;;;;;;;;;;;;;;;;;;
S03;strongR;1;3;162.5;2;15;0;;;;;;;;;;;;;;;;;;;;;;;;;;
S03;strongR;1;3;164.42;3;13;0;;;;;;;;;;;;;;;;;;;;;;;;;;
S03;strongR;1;3;170.5;4;5;0;;;;;;;;;;;;;;;;;;;;;;;;;;
S03;strongR;1;3;183;5;0;0;;;;;;;;;;;;;;;;;;;;;;;;;;
S03;strongR;1;3;176.18;6;11;0;;;;;;;;;;;;;;;;;;;;;;;;;;
S03;strongR;1;3;167;7;20;0;;;;;;;;;;;;;;;;;;;;;;;;;;
S03;strongR;1;3;175.32;8;12;0;;;;;;;;;;;;;;;;;;;;;;;;;;
S03;strongR;1;3;273;9;30;0;;;;;;;;;;;;;;;;;;;;;;;;;;
S03;strongR;1;3;284.52;10;22;0;;;;;;;;;;;;;;;;;;;;;;;;;;
S03;strongR;1;3;80.28;11;96;0;;;;;;;;;;;;;;;;;;;;;;;;;;
S03;strongR;1;3;292.5;12;15;0;;;;;;;;;;;;;;;;;;;;;;;;;;
S03;strongR;1;3;164.42;13;13;0;;;;;;;;;;;;;;;;;;;;;;;;;;
S03;strongR;1;3;163.48;14;14;0;;;;;;;;;;;;;;;;;;;;;;;;;;
S03;strongR;1;3;170.5;15;5;0;;;;;;;;;;;;;;;;;;;;;;;;;;
S03;strongR;1;3;172.58;16;1;0;;;;;;;;;;;;;;;;;;;;;;;;;;
S03;strongR;2;3;180;1;10;0;;;;;;;;;;;;;;;;;;;;;;;;;;
S03;strongR;2;3;174.48;2;16;15;;;;;;;;;;;;;;;;;;;;;;;;;;
S03;strongR;2;3;176.48;3;14;13;;;;;;;;;;;;;;;;;;;;;;;;;;
S03;strongR;2;3;182.88;4;6;5;;;;;;;;;;;;;;;;;;;;;;;;;;
S03;strongR;2;3;186.58;5;1;0;;;;;;;;;;;;;;;;;;;;;;;;;;
S03;strongR;2;3;179.32;6;12;11;;;;;;;;;;;;;;;;;;;;;;;;;;
S03;strongR;2;3;169.78;7;21;20;;;;;;;;;;;;;;;;;;;;;;;;;;
S03;strongR;2;3;178.42;8;13;12;;;;;;;;;;;;;;;;;;;;;;;;;;
S03;strongR;2;3;254.5;9;55;30;;;;;;;;;;;;;;;;;;;;;;;;;;
S03;strongR;2;3;314.5;10;25;22;;;;;;;;;;;;;;;;;;;;;;;;;;
S03;strongR;2;3;110.02;11;97;96;;;;;;;;;;;;;;;;;;;;;;;;;;
S03;strongR;2;3;321;12;20;15;;;;;;;;;;;;;;;;;;;;;;;;;;
S03;strongR;2;3;176.48;13;14;13;;;;;;;;;;;;;;;;;;;;;;;;;;
S03;strongR;2;3;175.5;14;15;14;;;;;;;;;;;;;;;;;;;;;;;;;;
S03;strongR;2;3;182.88;15;6;5;;;;;;;;;;;;;;;;;;;;;;;;;;
S03;strongR;2;3;179.18;16;11;1;;;;;;;;;;;;;;;;;;;;;;;;;;
S03;strongR;3;3;186.32;1;12;10;;;;;;;;;;;;;;;;;;;;;;;;;;
S03;strongR;3;3;178;2;20;16;;;;;;;;;;;;;;;;;;;;;;;;;;
S03;strongR;3;3;183.5;3;15;14;;;;;;;;;;;;;;;;;;;;;;;;;;
S03;strongR;3;3;190.22;4;7;6;;;;;;;;;;;;;;;;;;;;;;;;;;
S03;strongR;3;3;191.5;5;25;1;;;;;;;;;;;;;;;;;;;;;;;;;;
S03;strongR;3;3;205.42;6;13;12;;;;;;;;;;;;;;;;;;;;;;;;;;
S03;strongR;3;3;195.52;7;22;21;;;;;;;;;;;;;;;;;;;;;;;;;;
S03;strongR;3;3;204.48;8;14;13;;;;;;;;;;;;;;;;;;;;;;;;;;
S03;strongR;3;3;268;9;60;55;;;;;;;;;;;;;;;;;;;;;;;;;;
S03;strongR;3;3;305.5;10;45;25;;;;;;;;;;;;;;;;;;;;;;;;;;
S03;strongR;3;3;132.72;11;98;97;;;;;;;;;;;;;;;;;;;;;;;;;;
S03;strongR;3;3;346.78;12;21;20;;;;;;;;;;;;;;;;;;;;;;;;;;
S03;strongR;3;3;189.5;13;15;14;;;;;;;;;;;;;;;;;;;;;;;;;;
S03;strongR;3;3;184;14;20;15;;;;;;;;;;;;;;;;;;;;;;;;;;
S03;strongR;3;3;194;15;10;6;;;;;;;;;;;;;;;;;;;;;;;;;;
S03;strongR;3;3;189.5;16;15;11;;;;;;;;;;;;;;;;;;;;;;;;;;
S03;strongR;4;3;190.42;1;13;12;;;;;;;;;;;;;;;;;;;;;;;;;;
S03;strongR;4;3;180.52;2;22;20;;;;;;;;;;;;;;;;;;;;;;;;;;
S03;strongR;4;3;187.48;3;16;15;;;;;;;;;;;;;;;;;;;;;;;;;;
S03;strongR;4;3;194.52;4;8;7;;;;;;;;;;;;;;;;;;;;;;;;;;
S03;strongR;4;3;194.08;5;26;25;;;;;;;;;;;;;;;;;;;;;;;;;;
S03;strongR;4;3;208.48;6;14;13;;;;;;;;;;;;;;;;;;;;;;;;;;
S03;strongR;4;3;198.22;7;23;22;;;;;;;;;;;;;;;;;;;;;;;;;;
S03;strongR;4;3;207.5;8;15;14;;;;;;;;;;;;;;;;;;;;;;;;;;
S03;strongR;4;3;222.5;9;85;60;;;;;;;;;;;;;;;;;;;;;;;;;;
S03;strongR;4;3;318.5;10;55;45;;;;;;;;;;;;;;;;;;;;;;;;;;
S03;strongR;4;3;165.38;11;99;98;;;;;;;;;;;;;;;;;;;;;;;;;;
S03;strongR;4;3;382.52;12;22;21;;;;;;;;;;;;;;;;;;;;;;;;;;
S03;strongR;4;3;200.48;13;16;15;;;;;;;;;;;;;;;;;;;;;;;;;;
S03;strongR;4;3;189.5;14;25;20;;;;;;;;;;;;;;;;;;;;;;;;;;
S03;strongR;4;3;201.5;15;15;10;;;;;;;;;;;;;;;;;;;;;;;;;;
S03;strongR;4;3;200.48;16;16;15;;;;;;;;;;;;;;;;;;;;;;;;;;
S03;strongR;5;3;193.48;1;14;13;;;;;;;;;;;;;;;;;;;;;;;;;;
S03;strongR;5;3;183.22;2;23;22;;;;;;;;;;;;;;;;;;;;;;;;;;
S03;strongR;5;3;190.42;3;17;16;;;;;;;;;;;;;;;;;;;;;;;;;;
S03;strongR;5;3;197.78;4;9;8;;;;;;;;;;;;;;;;;;;;;;;;;;
S03;strongR;5;3;195;5;30;26;;;;;;;;;;;;;;;;;;;;;;;;;;
S03;strongR;5;3;214.5;6;15;14;;;;;;;;;;;;;;;;;;;;;;;;;;
S03;strongR;5;3;203.88;7;24;23;;;;;;;;;;;;;;;;;;;;;;;;;;
S03;strongR;5;3;213.48;8;16;15;;;;;;;;;;;;;;;;;;;;;;;;;;
S03;strongR;5;3;206.5;9;95;85;;;;;;;;;;;;;;;;;;;;;;;;;;
S03;strongR;5;3;329;10;60;55;;;;;;;;;;;;;;;;;;;;;;;;;;
S03;strongR;5;3;185;11;100;99;;;;;;;;;;;;;;;;;;;;;;;;;;
S03;strongR;5;3;395;12;30;22;;;;;;;;;;;;;;;;;;;;;;;;;;
S03;strongR;5;3;204.42;13;17;16;;;;;;;;;;;;;;;;;;;;;;;;;;
S03;strongR;5;3;193.08;14;26;25;;;;;;;;;;;;;;;;;;;;;;;;;;
S03;strongR;5;3;204.42;15;17;15;;;;;;;;;;;;;;;;;;;;;;;;;;
S03;strongR;5;3;204.42;16;17;16;;;;;;;;;;;;;;;;;;;;;;;;;;
S03;strongR;1;4;157.5;1;15;0;;;;;;;;;;;;;;;;;;;;;;;;;;
S03;strongR;1;4;168;2;0;0;;;;;;;;;;;;;;;;;;;;;;;;;;
S03;strongR;1;4;159.42;3;13;0;;;;;;;;;;;;;;;;;;;;;;;;;;
S03;strongR;1;4;168;4;0;0;;;;;;;;;;;;;;;;;;;;;;;;;;
S03;strongR;1;4;179;5;10;0;;;;;;;;;;;;;;;;;;;;;;;;;;
S03;strongR;1;4;177.32;6;12;0;;;;;;;;;;;;;;;;;;;;;;;;;;
S03;strongR;1;4;179;7;10;0;;;;;;;;;;;;;;;;;;;;;;;;;;
S03;strongR;1;4;176.42;8;13;0;;;;;;;;;;;;;;;;;;;;;;;;;;
S03;strongR;1;4;275;9;20;0;;;;;;;;;;;;;;;;;;;;;;;;;;
S03;strongR;1;4;268.5;10;25;0;;;;;;;;;;;;;;;;;;;;;;;;;;
S03;strongR;1;4;68.28;11;96;0;;;;;;;;;;;;;;;;;;;;;;;;;;
S03;strongR;1;4;285;12;10;0;;;;;;;;;;;;;;;;;;;;;;;;;;
S03;strongR;1;4;166.78;13;9;0;;;;;;;;;;;;;;;;;;;;;;;;;;
S03;strongR;1;4;170.62;14;3;0;;;;;;;;;;;;;;;;;;;;;;;;;;
S03;strongR;1;4;169.5;15;5;0;;;;;;;;;;;;;;;;;;;;;;;;;;
S03;strongR;1;4;161.5;16;15;0;;;;;;;;;;;;;;;;;;;;;;;;;;
S03;strongR;2;4;160.48;1;16;15;;;;;;;;;;;;;;;;;;;;;;;;;;
S03;strongR;2;4;171.58;2;1;0;;;;;;;;;;;;;;;;;;;;;;;;;;
S03;strongR;2;4;162.48;3;14;13;;;;;;;;;;;;;;;;;;;;;;;;;;
S03;strongR;2;4;171.58;4;1;0;;;;;;;;;;;;;;;;;;;;;;;;;;
S03;strongR;2;4;182.5;5;15;10;;;;;;;;;;;;;;;;;;;;;;;;;;
S03;strongR;2;4;184.42;6;13;12;;;;;;;;;;;;;;;;;;;;;;;;;;
S03;strongR;2;4;186.18;7;11;10;;;;;;;;;;;;;;;;;;;;;;;;;;
S03;strongR;2;4;183.48;8;14;13;;;;;;;;;;;;;;;;;;;;;;;;;;
S03;strongR;2;4;284.5;9;25;20;;;;;;;;;;;;;;;;;;;;;;;;;;
S03;strongR;2;4;277;10;30;25;;;;;;;;;;;;;;;;;;;;;;;;;;
S03;strongR;2;4;80.02;11;97;96;;;;;;;;;;;;;;;;;;;;;;;;;;
S03;strongR;2;4;296.5;12;15;10;;;;;;;;;;;;;;;;;;;;;;;;;;
S03;strongR;2;4;181;13;10;9;;;;;;;;;;;;;;;;;;;;;;;;;;
S03;strongR;2;4;176.5;14;15;3;;;;;;;;;;;;;;;;;;;;;;;;;;
S03;strongR;2;4;183.88;15;6;5;;;;;;;;;;;;;;;;;;;;;;;;;;
S03;strongR;2;4;175.48;16;16;15;;;;;;;;;;;;;;;;;;;;;;;;;;
S03;strongR;3;4;163.42;1;17;16;;;;;;;;;;;;;;;;;;;;;;;;;;
S03;strongR;3;4;175.12;2;2;1;;;;;;;;;;;;;;;;;;;;;;;;;;
S03;strongR;3;4;165.5;3;15;14;;;;;;;;;;;;;;;;;;;;;;;;;;
S03;strongR;3;4;175.12;4;2;1;;;;;;;;;;;;;;;;;;;;;;;;;;
S03;strongR;3;4;185.48;5;16;15;;;;;;;;;;;;;;;;;;;;;;;;;;
S03;strongR;3;4;187.48;6;14;13;;;;;;;;;;;;;;;;;;;;;;;;;;
S03;strongR;3;4;189.32;7;12;11;;;;;;;;;;;;;;;;;;;;;;;;;;
S03;strongR;3;4;186.5;8;15;14;;;;;;;;;;;;;;;;;;;;;;;;;;
S03;strongR;3;4;294;9;30;25;;;;;;;;;;;;;;;;;;;;;;;;;;
S03;strongR;3;4;276;10;40;30;;;;;;;;;;;;;;;;;;;;;;;;;;
S03;strongR;3;4;92.72;11;98;97;;;;;;;;;;;;;;;;;;;;;;;;;;
S03;strongR;3;4;312.48;12;16;15;;;;;;;;;;;;;;;;;;;;;;;;;;
S03;strongR;3;4;200.18;13;11;10;;;;;;;;;;;;;;;;;;;;;;;;;;
S03;strongR;3;4;195.48;14;16;15;;;;;;;;;;;;;;;;;;;;;;;;;;
S03;strongR;3;4;196.5;15;15;6;;;;;;;;;;;;;;;;;;;;;;;;;;
S03;strongR;3;4;184.5;16;25;16;;;;;;;;;;;;;;;;;;;;;;;;;;
S03;strongR;4;4;178.32;1;18;17;;;;;;;;;;;;;;;;;;;;;;;;;;
S03;strongR;4;4;181.5;2;15;2;;;;;;;;;;;;;;;;;;;;;;;;;;
S03;strongR;4;4;180.48;3;16;15;;;;;;;;;;;;;;;;;;;;;;;;;;
S03;strongR;4;4;190.62;4;3;2;;;;;;;;;;;;;;;;;;;;;;;;;;
S03;strongR;4;4;188.42;5;17;16;;;;;;;;;;;;;;;;;;;;;;;;;;
S03;strongR;4;4;190.5;6;15;14;;;;;;;;;;;;;;;;;;;;;;;;;;
S03;strongR;4;4;192.42;7;13;12;;;;;;;;;;;;;;;;;;;;;;;;;;
S03;strongR;4;4;189.48;8;16;15;;;;;;;;;;;;;;;;;;;;;;;;;;
S03;strongR;4;4;289;9;40;30;;;;;;;;;;;;;;;;;;;;;;;;;;
S03;strongR;4;4;286.98;10;41;40;;;;;;;;;;;;;;;;;;;;;;;;;;
S03;strongR;4;4;101.38;11;99;98;;;;;;;;;;;;;;;;;;;;;;;;;;
S03;strongR;4;4;324.42;12;17;16;;;;;;;;;;;;;;;;;;;;;;;;;;
S03;strongR;4;4;206.32;13;12;11;;;;;;;;;;;;;;;;;;;;;;;;;;
S03;strongR;4;4;201.42;14;17;16;;;;;;;;;;;;;;;;;;;;;;;;;;
S03;strongR;4;4;201.42;15;17;15;;;;;;;;;;;;;;;;;;;;;;;;;;
S03;strongR;4;4;187.12;16;28;25;;;;;;;;;;;;;;;;;;;;;;;;;;
S03;strongR;5;4;181.18;1;19;18;;;;;;;;;;;;;;;;;;;;;;;;;;
S03;strongR;5;4;184.48;2;16;15;;;;;;;;;;;;;;;;;;;;;;;;;;
S03;strongR;5;4;183.42;3;17;16;;;;;;;;;;;;;;;;;;;;;;;;;;
S03;strongR;5;4;194.08;4;4;3;;;;;;;;;;;;;;;;;;;;;;;;;;
S03;strongR;5;4;191.32;5;18;17;;;;;;;;;;;;;;;;;;;;;;;;;;
S03;strongR;5;4;193.48;6;16;15;;;;;;;;;;;;;;;;;;;;;;;;;;
S03;strongR;5;4;195.48;7;14;13;;;;;;;;;;;;;;;;;;;;;;;;;;
S03;strongR;5;4;192.42;8;17;16;;;;;;;;;;;;;;;;;;;;;;;;;;
S03;strongR;5;4;289.5;9;45;40;;;;;;;;;;;;;;;;;;;;;;;;;;
S03;strongR;5;4;289.5;10;45;41;;;;;;;;;;;;;;;;;;;;;;;;;;
S03;strongR;5;4;108;11;100;99;;;;;;;;;;;;;;;;;;;;;;;;;;
S03;strongR;5;4;334.32;12;18;17;;;;;;;;;;;;;;;;;;;;;;;;;;
S03;strongR;5;4;212.42;13;13;12;;;;;;;;;;;;;;;;;;;;;;;;;;
S03;strongR;5;4;207.32;14;18;17;;;;;;;;;;;;;;;;;;;;;;;;;;
S03;strongR;5;4;205;15;20;17;;;;;;;;;;;;;;;;;;;;;;;;;;
S03;strongR;5;4;191;16;30;28;;;;;;;;;;;;;;;;;;;;;;;;;;
S03;strongR;1;5;162;1;10;0;;;;;;;;;;;;;;;;;;;;;;;;;;
S03;strongR;1;5;157.5;2;15;0;;;;;;;;;;;;;;;;;;;;;;;;;;
S03;strongR;1;5;168;3;0;0;;;;;;;;;;;;;;;;;;;;;;;;;;
S03;strongR;1;5;166.62;4;3;0;;;;;;;;;;;;;;;;;;;;;;;;;;
S03;strongR;1;5;161;5;0;0;;;;;;;;;;;;;;;;;;;;;;;;;;
S03;strongR;1;5;155.78;6;9;0;;;;;;;;;;;;;;;;;;;;;;;;;;
S03;strongR;1;5;161;7;0;0;;;;;;;;;;;;;;;;;;;;;;;;;;
S03;strongR;1;5;153.32;8;12;0;;;;;;;;;;;;;;;;;;;;;;;;;;
S03;strongR;1;5;270.5;9;15;0;;;;;;;;;;;;;;;;;;;;;;;;;;
S03;strongR;1;5;265;10;20;0;;;;;;;;;;;;;;;;;;;;;;;;;;
S03;strongR;1;5;58.28;11;96;0;;;;;;;;;;;;;;;;;;;;;;;;;;
S03;strongR;1;5;275;12;10;0;;;;;;;;;;;;;;;;;;;;;;;;;;
S03;strongR;1;5;163.78;13;9;0;;;;;;;;;;;;;;;;;;;;;;;;;;
S03;strongR;1;5;166.5;14;5;0;;;;;;;;;;;;;;;;;;;;;;;;;;
S03;strongR;1;5;163;15;10;0;;;;;;;;;;;;;;;;;;;;;;;;;;
S03;strongR;1;5;166.5;16;5;0;;;;;;;;;;;;;;;;;;;;;;;;;;
S03;strongR;2;5;177.32;1;12;10;;;;;;;;;;;;;;;;;;;;;;;;;;
S03;strongR;2;5;173.48;2;16;15;;;;;;;;;;;;;;;;;;;;;;;;;;
S03;strongR;2;5;176.42;3;13;0;;;;;;;;;;;;;;;;;;;;;;;;;;
S03;strongR;2;5;183.08;4;4;3;;;;;;;;;;;;;;;;;;;;;;;;;;
S03;strongR;2;5;168;5;10;0;;;;;;;;;;;;;;;;;;;;;;;;;;
S03;strongR;2;5;168;6;10;9;;;;;;;;;;;;;;;;;;;;;;;;;;
S03;strongR;2;5;173.58;7;1;0;;;;;;;;;;;;;;;;;;;;;;;;;;
S03;strongR;2;5;165.42;8;13;12;;;;;;;;;;;;;;;;;;;;;;;;;;
S03;strongR;2;5;278;9;20;15;;;;;;;;;;;;;;;;;;;;;;;;;;
S03;strongR;2;5;275.52;10;22;20;;;;;;;;;;;;;;;;;;;;;;;;;;
S03;strongR;2;5;67.02;11;97;96;;;;;;;;;;;;;;;;;;;;;;;;;;
S03;strongR;2;5;283.5;12;15;10;;;;;;;;;;;;;;;;;;;;;;;;;;
S03;strongR;2;5;172;13;10;9;;;;;;;;;;;;;;;;;;;;;;;;;;
S03;strongR;2;5;171.18;14;11;5;;;;;;;;;;;;;;;;;;;;;;;;;;
S03;strongR;2;5;171.18;15;11;10;;;;;;;;;;;;;;;;;;;;;;;;;;
S03;strongR;2;5;174.88;16;6;5;;;;;;;;;;;;;;;;;;;;;;;;;;
S03;strongR;3;5;180.5;1;15;12;;;;;;;;;;;;;;;;;;;;;;;;;;
S03;strongR;3;5;178.42;2;17;16;;;;;;;;;;;;;;;;;;;;;;;;;;
S03;strongR;3;5;181.48;3;14;13;;;;;;;;;;;;;;;;;;;;;;;;;;
S03;strongR;3;5;188.5;4;5;4;;;;;;;;;;;;;;;;;;;;;;;;;;
S03;strongR;3;5;171.32;5;12;10;;;;;;;;;;;;;;;;;;;;;;;;;;
S03;strongR;3;5;172.18;6;11;10;;;;;;;;;;;;;;;;;;;;;;;;;;
S03;strongR;3;5;178.12;7;2;1;;;;;;;;;;;;;;;;;;;;;;;;;;
S03;strongR;3;5;169.48;8;14;13;;;;;;;;;;;;;;;;;;;;;;;;;;
S03;strongR;3;5;294.5;9;25;20;;;;;;;;;;;;;;;;;;;;;;;;;;
S03;strongR;3;5;295.88;10;24;22;;;;;;;;;;;;;;;;;;;;;;;;;;
S03;strongR;3;5;85.72;11;98;97;;;;;;;;;;;;;;;;;;;;;;;;;;
S03;strongR;3;5;287;12;30;15;;;;;;;;;;;;;;;;;;;;;;;;;;
S03;strongR;3;5;178.18;13;11;10;;;;;;;;;;;;;;;;;;;;;;;;;;
S03;strongR;3;5;174.5;14;15;11;;;;;;;;;;;;;;;;;;;;;;;;;;
S03;strongR;3;5;177.32;15;12;11;;;;;;;;;;;;;;;;;;;;;;;;;;
S03;strongR;3;5;181.22;16;7;6;;;;;;;;;;;;;;;;;;;;;;;;;;
S03;strongR;4;5;183.48;1;16;15;;;;;;;;;;;;;;;;;;;;;;;;;;
S03;strongR;4;5;181.32;2;18;17;;;;;;;;;;;;;;;;;;;;;;;;;;
S03;strongR;4;5;184.5;3;15;14;;;;;;;;;;;;;;;;;;;;;;;;;;
S03;strongR;4;5;191.88;4;6;5;;;;;;;;;;;;;;;;;;;;;;;;;;
S03;strongR;4;5;174.5;5;15;12;;;;;;;;;;;;;;;;;;;;;;;;;;
S03;strongR;4;5;177.32;6;12;11;;;;;;;;;;;;;;;;;;;;;;;;;;
S03;strongR;4;5;183.62;7;3;2;;;;;;;;;;;;;;;;;;;;;;;;;;
S03;strongR;4;5;174.5;8;15;14;;;;;;;;;;;;;;;;;;;;;;;;;;
S03;strongR;4;5;296;9;30;25;;;;;;;;;;;;;;;;;;;;;;;;;;
S03;strongR;4;5;302.08;10;26;24;;;;;;;;;;;;;;;;;;;;;;;;;;
S03;strongR;4;5;90.38;11;99;98;;;;;;;;;;;;;;;;;;;;;;;;;;
S03;strongR;4;5;294.38;12;31;30;;;;;;;;;;;;;;;;;;;;;;;;;;
S03;strongR;4;5;181.32;13;12;11;;;;;;;;;;;;;;;;;;;;;;;;;;
S03;strongR;4;5;177.48;14;16;15;;;;;;;;;;;;;;;;;;;;;;;;;;
S03;strongR;4;5;180.42;15;13;12;;;;;;;;;;;;;;;;;;;;;;;;;;
S03;strongR;4;5;184.52;16;8;7;;;;;;;;;;;;;;;;;;;;;;;;;;
S03;strongR;5;5;186.42;1;17;16;;;;;;;;;;;;;;;;;;;;;;;;;;
S03;strongR;5;5;184.18;2;19;18;;;;;;;;;;;;;;;;;;;;;;;;;;
S03;strongR;5;5;187.48;3;16;15;;;;;;;;;;;;;;;;;;;;;;;;;;
S03;strongR;5;5;195.22;4;7;6;;;;;;;;;;;;;;;;;;;;;;;;;;
S03;strongR;5;5;177.48;5;16;15;;;;;;;;;;;;;;;;;;;;;;;;;;
S03;strongR;5;5;180.42;6;13;12;;;;;;;;;;;;;;;;;;;;;;;;;;
S03;strongR;5;5;187.08;7;4;3;;;;;;;;;;;;;;;;;;;;;;;;;;
S03;strongR;5;5;177.48;8;16;15;;;;;;;;;;;;;;;;;;;;;;;;;;
S03;strongR;5;5;296.5;9;35;30;;;;;;;;;;;;;;;;;;;;;;;;;;
S03;strongR;5;5;308.12;10;28;26;;;;;;;;;;;;;;;;;;;;;;;;;;
S03;strongR;5;5;95;11;100;99;;;;;;;;;;;;;;;;;;;;;;;;;;
S03;strongR;5;5;301.72;12;32;31;;;;;;;;;;;;;;;;;;;;;;;;;;
S03;strongR;5;5;191.42;13;13;12;;;;;;;;;;;;;;;;;;;;;;;;;;
S03;strongR;5;5;187.42;14;17;16;;;;;;;;;;;;;;;;;;;;;;;;;;
S03;strongR;5;5;187.42;15;17;13;;;;;;;;;;;;;;;;;;;;;;;;;;
S03;strongR;5;5;191.42;16;13;8;;;;;;;;;;;;;;;;;;;;;;;;;;
S04;weakR;1;1;228;1;50;0;1;1;Mnnlich;22;Man kann den meisten vertrauen.;4;5 Trifft voll und ganz zu;5 Trifft voll und ganz zu;5 Trifft voll und ganz zu;5 Trifft voll und ganz zu;4;2;2;2;3;1 Trifft gar nicht zu;4;3;4;3;3;5 Trifft voll und ganz zu;Medizin;0;10;9
S04;weakR;1;1;250;2;40;0;2;2;Weiblich;20;Man kann nicht vorsichtig genug sein.;3;4;5 Trifft voll und ganz zu;3;1 Trifft gar nicht zu;2;3;2;1 Trifft gar nicht zu;1 Trifft gar nicht zu;1 Trifft gar nicht zu;4;5 Trifft voll und ganz zu;4;3;4;1 Trifft gar nicht zu;Bildungswissenschaft;1;4;3
S04;weakR;1;1;178.32;3;68;0;3;3;Weiblich;27;Man kann nicht vorsichtig genug sein.;3;3;5 Trifft voll und ganz zu;4;5 Trifft voll und ganz zu;2;2;3;2;3;2;2;5 Trifft voll und ganz zu;4;3;5 Trifft voll und ganz zu;4;Chemieingenieurwesen: Molekulare und Strukturelle Produktgestaltung ;1;2;1
S04;weakR;1;1;298;4;0;0;4;4;Weiblich;22;Man kann nicht vorsichtig genug sein.;2;3;4;3;4;2;4;3;3;4;3;1 Trifft gar nicht zu;4;3;2;3;1 Trifft gar nicht zu;Psychologie;0;6;5
S04;weakR;1;1;170;5;30;0;5;5;Weiblich;23;Man kann den meisten vertrauen.;3;4;4;5 Trifft voll und ganz zu;4;4;3;3;2;2;2;1 Trifft gar nicht zu;2;1 Trifft gar nicht zu;1 Trifft gar nicht zu;2;5 Trifft voll und ganz zu;Philosophie - Neurowissenschaften - Kognition ;0;5;4
S04;weakR;1;1;189.5;6;15;0;6;6;Mnnlich;23;Man kann nicht vorsichtig genug sein.;2;2;3;4;4;2;3;1 Trifft gar nicht zu;2;3;2;3;3;4;2;3;4;Sozialwissenschaften;0;16;13
S04;weakR;1;1;200;7;0;0;7;7;Mnnlich;26;Man kann nicht vorsichtig genug sein.;3;4;4;3;3;2;2;1 Trifft gar nicht zu;3;1 Trifft gar nicht zu;1 Trifft gar nicht zu;2;3;4;1 Trifft gar nicht zu;3;5 Trifft voll und ganz zu;Wasserwirtschaft;1;6;4
S04;weakR;1;1;189.5;8;15;0;8;8;Mnnlich;23;Man kann den meisten vertrauen.;2;5 Trifft voll und ganz zu;4;5 Trifft voll und ganz zu;4;4;4;2;3;4;2;5 Trifft voll und ganz zu;4;4;3;4;3;Wirtschaftsingenieur Maschinenbau ;0;3;2
S04;weakR;1;1;213.5;9;15;0;9;9;Mnnlich;23;Man kann den meisten vertrauen.;3;4;3;2;4;2;3;4;2;3;4;2;1 Trifft gar nicht zu;1 Trifft gar nicht zu;1 Trifft gar nicht zu;1 Trifft gar nicht zu;5 Trifft voll und ganz zu;Maschinenbau;0;6;5
S04;weakR;1;1;221.5;10;5;0;10;10;Weiblich;23;Man kann den meisten vertrauen.;4;3;5 Trifft voll und ganz zu;3;4;3;5 Trifft voll und ganz zu;4;4;4;3;1 Trifft gar nicht zu;1 Trifft gar nicht zu;1 Trifft gar nicht zu;1 Trifft gar nicht zu;1 Trifft gar nicht zu;5 Trifft voll und ganz zu;Psychologie;0;4;3
S04;weakR;1;1;222.08;11;4;0;11;11;Weiblich;20;Man kann nicht vorsichtig genug sein.;3;3;4;3;4;2;4;3;2;2;1 Trifft gar nicht zu;2;2;2;1 Trifft gar nicht zu;3;3;Betriebliche Berufsbildung und Berufsbildungsmanagement ;0;10;9
S04;weakR;1;1;128;12;60;0;12;12;Weiblich;20;Man kann nicht vorsichtig genug sein.;1 Die Menschen nutzen einen aus;4;5 Trifft voll und ganz zu;4;5 Trifft voll und ganz zu;4;4;3;4;3;3;3;4;5 Trifft voll und ganz zu;4;5 Trifft voll und ganz zu;4;Sozialwissenschaften;0;19;16
S04;weakR;1;1;219.5;13;15;0;13;13;Weiblich;31;Man kann nicht vorsichtig genug sein.;3;3;3;3;4;2;4;2;3;4;4;1 Trifft gar nicht zu;1 Trifft gar nicht zu;1 Trifft gar nicht zu;2;3;5 Trifft voll und ganz zu;Wirtschaftsinformatik;0;4;3
S04;weakR;1;1;200;14;30;0;14;14;Mnnlich;23;Man kann nicht vorsichtig genug sein.;2;5 Trifft voll und ganz zu;4;5 Trifft voll und ganz zu;4;4;3;2;2;2;1 Trifft gar nicht zu;3;3;2;2;4;4;Wirtschaftsingenieur Maschinenbau ;0;28;25
S04;weakR;1;1;200;15;30;0;15;15;Mnnlich;26;Man kann den meisten vertrauen.;3;4;3;4;3;4;3;2;1 Trifft gar nicht zu;1 Trifft gar nicht zu;1 Trifft gar nicht zu;1 Trifft gar nicht zu;2;1 Trifft gar nicht zu;1 Trifft gar nicht zu;2;5 Trifft voll und ganz zu;Wirtschaftsinformatik;0;22;18
S04;weakR;1;1;219.5;16;15;0;16;16;Weiblich;28;Man kann nicht vorsichtig genug sein.;2;1 Trifft gar nicht zu;5 Trifft voll und ganz zu;2;3;2;5 Trifft voll und ganz zu;5 Trifft voll und ganz zu;5 Trifft voll und ganz zu;5 Trifft voll und ganz zu;4;2;4;3;2;2;3;Wirtschaftsingenieur Maschinenbau ;1;24;23
S04;weakR;1;1;157;17;40;0;17;17;Mnnlich;21;Man kann nicht vorsichtig genug sein.;2;4;5 Trifft voll und ganz zu;4;5 Trifft voll und ganz zu;4;2;2;2;1 Trifft gar nicht zu;2;1 Trifft gar nicht zu;4;2;2;3;4;Medienbildung - Audiovisuelle Kultur und Kommunikation ;0;3;2
S04;weakR;1;1;202.5;18;5;0;18;18;Mnnlich;25;Man kann nicht vorsichtig genug sein.;2;4;4;4;4;3;4;3;3;3;2;2;2;3;3;4;5 Trifft voll und ganz zu;Wirtschaftsingenieur Logistik ;0;4;3
S04;weakR;1;1;205;19;0;0;19;19;Weiblich;26;Man kann nicht vorsichtig genug sein.;2;4;5 Trifft voll und ganz zu;3;4;3;3;2;3;2;1 Trifft gar nicht zu;5 Trifft voll und ganz zu;5 Trifft voll und ganz zu;5 Trifft voll und ganz zu;2;3;5 Trifft voll und ganz zu;Friedens- und Konfliktforschung ;1;2;1
S04;weakR;1;1;189;20;20;0;20;20;Weiblich;20;Man kann nicht vorsichtig genug sein.;3;4;2;3;3;2;4;5 Trifft voll und ganz zu;3;4;2;1 Trifft gar nicht zu;2;1 Trifft gar nicht zu;1 Trifft gar nicht zu;2;4;Sozialwissenschaften;0;5;3
S04;weakR;1;1;260;21;30;0;21;21;Mnnlich;20;Man kann den meisten vertrauen.;3;3;4;2;4;2;2;2;3;4;2;2;2;3;1 Trifft gar nicht zu;4;5 Trifft voll und ganz zu;Wirtschaftsingenieur Maschinenbau ;0;2;1
S04;weakR;1;1;260;22;30;0;22;22;Mnnlich;22;Man kann nicht vorsichtig genug sein.;2;4;5 Trifft voll und ganz zu;2;4;3;2;2;2;2;2;2;4;4;3;4;4;Betriebswirtschaftslehre;1;1;0
S04;weakR;1;1;130;23;80;0;23;23;Mnnlich;22;Man kann den meisten vertrauen.;3;5 Trifft voll und ganz zu;5 Trifft voll und ganz zu;4;4;3;4;4;3;3;3;3;5 Trifft voll und ganz zu;4;3;4;4;Wirtschaftsingenieur Maschinenbau ;0;12;11
S04;weakR;1;1;284;24;10;0;24;24;Weiblich;23;Man kann nicht vorsichtig genug sein.;2;2;4;3;4;2;3;2;3;3;1 Trifft gar nicht zu;1 Trifft gar nicht zu;1 Trifft gar nicht zu;2;1 Trifft gar nicht zu;2;5 Trifft voll und ganz zu;Volkswirtschaftslehre - International Economics and Policy Consulting ;0;3;2
S04;weakR;2;1;253;1;50;50;1;1;Mnnlich;22;Man kann den meisten vertrauen.;4;5 Trifft voll und ganz zu;5 Trifft voll und ganz zu;5 Trifft voll und ganz zu;5 Trifft voll und ganz zu;4;2;2;2;3;1 Trifft gar nicht zu;4;3;4;3;3;5 Trifft voll und ganz zu;Medizin;0;10;9
S04;weakR;2;1;275;2;40;40;2;2;Weiblich;20;Man kann nicht vorsichtig genug sein.;3;4;5 Trifft voll und ganz zu;3;1 Trifft gar nicht zu;2;3;2;1 Trifft gar nicht zu;1 Trifft gar nicht zu;1 Trifft gar nicht zu;4;5 Trifft voll und ganz zu;4;3;4;1 Trifft gar nicht zu;Bildungswissenschaft;1;4;3
S04;weakR;2;1;170.12;3;78;68;3;3;Weiblich;27;Man kann nicht vorsichtig genug sein.;3;3;5 Trifft voll und ganz zu;4;5 Trifft voll und ganz zu;2;2;3;2;3;2;2;5 Trifft voll und ganz zu;4;3;5 Trifft voll und ganz zu;4;Chemieingenieurwesen: Molekulare und Strukturelle Produktgestaltung ;1;2;1
S04;weakR;2;1;312.5;4;15;0;4;4;Weiblich;22;Man kann nicht vorsichtig genug sein.;2;3;4;3;4;2;4;3;3;4;3;1 Trifft gar nicht zu;4;3;2;3;1 Trifft gar nicht zu;Psychologie;0;6;5
S04;weakR;2;1;195;5;30;30;5;5;Weiblich;23;Man kann den meisten vertrauen.;3;4;4;5 Trifft voll und ganz zu;4;4;3;3;2;2;2;1 Trifft gar nicht zu;2;1 Trifft gar nicht zu;1 Trifft gar nicht zu;2;5 Trifft voll und ganz zu;Philosophie - Neurowissenschaften - Kognition ;0;5;4
S04;weakR;2;1;209;6;20;15;6;6;Mnnlich;23;Man kann nicht vorsichtig genug sein.;2;2;3;4;4;2;3;1 Trifft gar nicht zu;2;3;2;3;3;4;2;3;4;Sozialwissenschaften;0;16;13
S04;weakR;2;1;209;7;20;0;7;7;Mnnlich;26;Man kann nicht vorsichtig genug sein.;3;4;4;3;3;2;2;1 Trifft gar nicht zu;3;1 Trifft gar nicht zu;1 Trifft gar nicht zu;2;3;4;1 Trifft gar nicht zu;3;5 Trifft voll und ganz zu;Wasserwirtschaft;1;6;4
S04;weakR;2;1;214.5;8;15;15;8;8;Mnnlich;23;Man kann den meisten vertrauen.;2;5 Trifft voll und ganz zu;4;5 Trifft voll und ganz zu;4;4;4;2;3;4;2;5 Trifft voll und ganz zu;4;4;3;4;3;Wirtschaftsingenieur Maschinenbau ;0;3;2
S04;weakR;2;1;219;9;20;15;9;9;Mnnlich;23;Man kann den meisten vertrauen.;3;4;3;2;4;2;3;4;2;3;4;2;1 Trifft gar nicht zu;1 Trifft gar nicht zu;1 Trifft gar nicht zu;1 Trifft gar nicht zu;5 Trifft voll und ganz zu;Maschinenbau;0;6;5
S04;weakR;2;1;232.5;10;5;5;10;10;Weiblich;23;Man kann den meisten vertrauen.;4;3;5 Trifft voll und ganz zu;3;4;3;5 Trifft voll und ganz zu;4;4;4;3;1 Trifft gar nicht zu;1 Trifft gar nicht zu;1 Trifft gar nicht zu;1 Trifft gar nicht zu;1 Trifft gar nicht zu;5 Trifft voll und ganz zu;Psychologie;0;4;3
S04;weakR;2;1;229;11;10;4;11;11;Weiblich;20;Man kann nicht vorsichtig genug sein.;3;3;4;3;4;2;4;3;2;2;1 Trifft gar nicht zu;2;2;2;1 Trifft gar nicht zu;3;3;Betriebliche Berufsbildung und Berufsbildungsmanagement ;0;10;9
S04;weakR;2;1;139;12;60;60;12;12;Weiblich;20;Man kann nicht vorsichtig genug sein.;1 Die Menschen nutzen einen aus;4;5 Trifft voll und ganz zu;4;5 Trifft voll und ganz zu;4;4;3;4;3;3;3;4;5 Trifft voll und ganz zu;4;5 Trifft voll und ganz zu;4;Sozialwissenschaften;0;19;16
S04;weakR;2;1;228.52;13;22;15;13;13;Weiblich;31;Man kann nicht vorsichtig genug sein.;3;3;3;3;4;2;4;2;3;4;4;1 Trifft gar nicht zu;1 Trifft gar nicht zu;1 Trifft gar nicht zu;2;3;5 Trifft voll und ganz zu;Wirtschaftsinformatik;0;4;3
S04;weakR;2;1;199;14;40;30;14;14;Mnnlich;23;Man kann nicht vorsichtig genug sein.;2;5 Trifft voll und ganz zu;4;5 Trifft voll und ganz zu;4;4;3;2;2;2;1 Trifft gar nicht zu;3;3;2;2;4;4;Wirtschaftsingenieur Maschinenbau ;0;28;25
S04;weakR;2;1;217;15;30;30;15;15;Mnnlich;26;Man kann den meisten vertrauen.;3;4;3;4;3;4;3;2;1 Trifft gar nicht zu;1 Trifft gar nicht zu;1 Trifft gar nicht zu;1 Trifft gar nicht zu;2;1 Trifft gar nicht zu;1 Trifft gar nicht zu;2;5 Trifft voll und ganz zu;Wirtschaftsinformatik;0;22;18
S04;weakR;2;1;236.5;16;15;15;16;16;Weiblich;28;Man kann nicht vorsichtig genug sein.;2;1 Trifft gar nicht zu;5 Trifft voll und ganz zu;2;3;2;5 Trifft voll und ganz zu;5 Trifft voll und ganz zu;5 Trifft voll und ganz zu;5 Trifft voll und ganz zu;4;2;4;3;2;2;3;Wirtschaftsingenieur Maschinenbau ;1;24;23
S04;weakR;2;1;167;17;40;40;17;17;Mnnlich;21;Man kann nicht vorsichtig genug sein.;2;4;5 Trifft voll und ganz zu;4;5 Trifft voll und ganz zu;4;2;2;2;1 Trifft gar nicht zu;2;1 Trifft gar nicht zu;4;2;2;3;4;Medienbildung - Audiovisuelle Kultur und Kommunikation ;0;3;2
S04;weakR;2;1;212.5;18;5;5;18;18;Mnnlich;25;Man kann nicht vorsichtig genug sein.;2;4;4;4;4;3;4;3;3;3;2;2;2;3;3;4;5 Trifft voll und ganz zu;Wirtschaftsingenieur Logistik ;0;4;3
S04;weakR;2;1;215;19;0;0;19;19;Weiblich;26;Man kann nicht vorsichtig genug sein.;2;4;5 Trifft voll und ganz zu;3;4;3;3;2;3;2;1 Trifft gar nicht zu;5 Trifft voll und ganz zu;5 Trifft voll und ganz zu;5 Trifft voll und ganz zu;2;3;5 Trifft voll und ganz zu;Friedens- und Konfliktforschung ;1;2;1
S04;weakR;2;1;185;20;30;20;20;20;Weiblich;20;Man kann nicht vorsichtig genug sein.;3;4;2;3;3;2;4;5 Trifft voll und ganz zu;3;4;2;1 Trifft gar nicht zu;2;1 Trifft gar nicht zu;1 Trifft gar nicht zu;2;4;Sozialwissenschaften;0;5;3
S04;weakR;2;1;235;21;60;30;21;21;Mnnlich;20;Man kann den meisten vertrauen.;3;3;4;2;4;2;2;2;3;4;2;2;2;3;1 Trifft gar nicht zu;4;5 Trifft voll und ganz zu;Wirtschaftsingenieur Maschinenbau ;0;2;1
S04;weakR;2;1;283;22;40;30;22;22;Mnnlich;22;Man kann nicht vorsichtig genug sein.;2;4;5 Trifft voll und ganz zu;2;4;3;2;2;2;2;2;2;4;4;3;4;4;Betriebswirtschaftslehre;1;1;0
S04;weakR;2;1;171;23;80;80;23;23;Mnnlich;22;Man kann den meisten vertrauen.;3;5 Trifft voll und ganz zu;5 Trifft voll und ganz zu;4;4;3;4;4;3;3;3;3;5 Trifft voll und ganz zu;4;3;4;4;Wirtschaftsingenieur Maschinenbau ;0;12;11
S04;weakR;2;1;324.18;24;11;10;24;24;Weiblich;23;Man kann nicht vorsichtig genug sein.;2;2;4;3;4;2;3;2;3;3;1 Trifft gar nicht zu;1 Trifft gar nicht zu;1 Trifft gar nicht zu;2;1 Trifft gar nicht zu;2;5 Trifft voll und ganz zu;Volkswirtschaftslehre - International Economics and Policy Consulting ;0;3;2
S04;weakR;3;1;254;1;60;50;1;1;Mnnlich;22;Man kann den meisten vertrauen.;4;5 Trifft voll und ganz zu;5 Trifft voll und ganz zu;5 Trifft voll und ganz zu;5 Trifft voll und ganz zu;4;2;2;2;3;1 Trifft gar nicht zu;4;3;4;3;3;5 Trifft voll und ganz zu;Medizin;0;10;9
S04;weakR;3;1;280;2;50;40;2;2;Weiblich;20;Man kann nicht vorsichtig genug sein.;3;4;5 Trifft voll und ganz zu;3;1 Trifft gar nicht zu;2;3;2;1 Trifft gar nicht zu;1 Trifft gar nicht zu;1 Trifft gar nicht zu;4;5 Trifft voll und ganz zu;4;3;4;1 Trifft gar nicht zu;Bildungswissenschaft;1;4;3
S04;weakR;3;1;171.5;3;85;78;3;3;Weiblich;27;Man kann nicht vorsichtig genug sein.;3;3;5 Trifft voll und ganz zu;4;5 Trifft voll und ganz zu;2;2;3;2;3;2;2;5 Trifft voll und ganz zu;4;3;5 Trifft voll und ganz zu;4;Chemieingenieurwesen: Molekulare und Strukturelle Produktgestaltung ;1;2;1
S04;weakR;3;1;339.5;4;15;15;4;4;Weiblich;22;Man kann nicht vorsichtig genug sein.;2;3;4;3;4;2;4;3;3;4;3;1 Trifft gar nicht zu;4;3;2;3;1 Trifft gar nicht zu;Psychologie;0;6;5
S04;weakR;3;1;215;5;30;30;5;5;Weiblich;23;Man kann den meisten vertrauen.;3;4;4;5 Trifft voll und ganz zu;4;4;3;3;2;2;2;1 Trifft gar nicht zu;2;1 Trifft gar nicht zu;1 Trifft gar nicht zu;2;5 Trifft voll und ganz zu;Philosophie - Neurowissenschaften - Kognition ;0;5;4
S04;weakR;3;1;229;6;20;20;6;6;Mnnlich;23;Man kann nicht vorsichtig genug sein.;2;2;3;4;4;2;3;1 Trifft gar nicht zu;2;3;2;3;3;4;2;3;4;Sozialwissenschaften;0;16;13
S04;weakR;3;1;197;7;40;20;7;7;Mnnlich;26;Man kann nicht vorsichtig genug sein.;3;4;4;3;3;2;2;1 Trifft gar nicht zu;3;1 Trifft gar nicht zu;1 Trifft gar nicht zu;2;3;4;1 Trifft gar nicht zu;3;5 Trifft voll und ganz zu;Wasserwirtschaft;1;6;4
S04;weakR;3;1;234.5;8;15;15;8;8;Mnnlich;23;Man kann den meisten vertrauen.;2;5 Trifft voll und ganz zu;4;5 Trifft voll und ganz zu;4;4;4;2;3;4;2;5 Trifft voll und ganz zu;4;4;3;4;3;Wirtschaftsingenieur Maschinenbau ;0;3;2
S04;weakR;3;1;223.5;9;25;20;9;9;Mnnlich;23;Man kann den meisten vertrauen.;3;4;3;2;4;2;3;4;2;3;4;2;1 Trifft gar nicht zu;1 Trifft gar nicht zu;1 Trifft gar nicht zu;1 Trifft gar nicht zu;5 Trifft voll und ganz zu;Maschinenbau;0;6;5
S04;weakR;3;1;242.88;10;6;5;10;10;Weiblich;23;Man kann den meisten vertrauen.;4;3;5 Trifft voll und ganz zu;3;4;3;5 Trifft voll und ganz zu;4;4;4;3;1 Trifft gar nicht zu;1 Trifft gar nicht zu;1 Trifft gar nicht zu;1 Trifft gar nicht zu;1 Trifft gar nicht zu;5 Trifft voll und ganz zu;Psychologie;0;4;3
S04;weakR;3;1;240;11;10;10;11;11;Weiblich;20;Man kann nicht vorsichtig genug sein.;3;3;4;3;4;2;4;3;2;2;1 Trifft gar nicht zu;2;2;2;1 Trifft gar nicht zu;3;3;Betriebliche Berufsbildung und Berufsbildungsmanagement ;0;10;9
S04;weakR;3;1;135.5;12;65;60;12;12;Weiblich;20;Man kann nicht vorsichtig genug sein.;1 Die Menschen nutzen einen aus;4;5 Trifft voll und ganz zu;4;5 Trifft voll und ganz zu;4;4;3;4;3;3;3;4;5 Trifft voll und ganz zu;4;5 Trifft voll und ganz zu;4;Sozialwissenschaften;0;19;16
S04;weakR;3;1;242.5;13;25;22;13;13;Weiblich;31;Man kann nicht vorsichtig genug sein.;3;3;3;3;4;2;4;2;3;4;4;1 Trifft gar nicht zu;1 Trifft gar nicht zu;1 Trifft gar nicht zu;2;3;5 Trifft voll und ganz zu;Wirtschaftsinformatik;0;4;3
S04;weakR;3;1;206.5;14;45;40;14;14;Mnnlich;23;Man kann nicht vorsichtig genug sein.;2;5 Trifft voll und ganz zu;4;5 Trifft voll und ganz zu;4;4;3;2;2;2;1 Trifft gar nicht zu;3;3;2;2;4;4;Wirtschaftsingenieur Maschinenbau ;0;28;25
S04;weakR;3;1;217;15;40;30;15;15;Mnnlich;26;Man kann den meisten vertrauen.;3;4;3;4;3;4;3;2;1 Trifft gar nicht zu;1 Trifft gar nicht zu;1 Trifft gar nicht zu;1 Trifft gar nicht zu;2;1 Trifft gar nicht zu;1 Trifft gar nicht zu;2;5 Trifft voll und ganz zu;Wirtschaftsinformatik;0;22;18
S04;weakR;3;1;254.5;16;15;15;16;16;Weiblich;28;Man kann nicht vorsichtig genug sein.;2;1 Trifft gar nicht zu;5 Trifft voll und ganz zu;2;3;2;5 Trifft voll und ganz zu;5 Trifft voll und ganz zu;5 Trifft voll und ganz zu;5 Trifft voll und ganz zu;4;2;4;3;2;2;3;Wirtschaftsingenieur Maschinenbau ;1;24;23
S04;weakR;3;1;172;17;40;40;17;17;Mnnlich;21;Man kann nicht vorsichtig genug sein.;2;4;5 Trifft voll und ganz zu;4;5 Trifft voll und ganz zu;4;2;2;2;1 Trifft gar nicht zu;2;1 Trifft gar nicht zu;4;2;2;3;4;Medienbildung - Audiovisuelle Kultur und Kommunikation ;0;3;2
S04;weakR;3;1;214;18;10;5;18;18;Mnnlich;25;Man kann nicht vorsichtig genug sein.;2;4;4;4;4;3;4;3;3;3;2;2;2;3;3;4;5 Trifft voll und ganz zu;Wirtschaftsingenieur Logistik ;0;4;3
S04;weakR;3;1;220;19;0;0;19;19;Weiblich;26;Man kann nicht vorsichtig genug sein.;2;4;5 Trifft voll und ganz zu;3;4;3;3;2;3;2;1 Trifft gar nicht zu;5 Trifft voll und ganz zu;5 Trifft voll und ganz zu;5 Trifft voll und ganz zu;2;3;5 Trifft voll und ganz zu;Friedens- und Konfliktforschung ;1;2;1
S04;weakR;3;1;190;20;30;30;20;20;Weiblich;20;Man kann nicht vorsichtig genug sein.;3;4;2;3;3;2;4;5 Trifft voll und ganz zu;3;4;2;1 Trifft gar nicht zu;2;1 Trifft gar nicht zu;1 Trifft gar nicht zu;2;4;Sozialwissenschaften;0;5;3
S04;weakR;3;1;240;21;60;60;21;21;Mnnlich;20;Man kann den meisten vertrauen.;3;3;4;2;4;2;2;2;3;4;2;2;2;3;1 Trifft gar nicht zu;4;5 Trifft voll und ganz zu;Wirtschaftsingenieur Maschinenbau ;0;2;1
S04;weakR;3;1;277.5;22;45;40;22;22;Mnnlich;22;Man kann nicht vorsichtig genug sein.;2;4;5 Trifft voll und ganz zu;2;4;3;2;2;2;2;2;2;4;4;3;4;4;Betriebswirtschaftslehre;1;1;0
S04;weakR;3;1;176;23;80;80;23;23;Mnnlich;22;Man kann den meisten vertrauen.;3;5 Trifft voll und ganz zu;5 Trifft voll und ganz zu;4;4;3;4;4;3;3;3;3;5 Trifft voll und ganz zu;4;3;4;4;Wirtschaftsingenieur Maschinenbau ;0;12;11
S04;weakR;3;1;329.18;24;11;11;24;24;Weiblich;23;Man kann nicht vorsichtig genug sein.;2;2;4;3;4;2;3;2;3;3;1 Trifft gar nicht zu;1 Trifft gar nicht zu;1 Trifft gar nicht zu;2;1 Trifft gar nicht zu;2;5 Trifft voll und ganz zu;Volkswirtschaftslehre - International Economics and Policy Consulting ;0;3;2
S04;weakR;4;1;234;1;70;60;1;1;Mnnlich;22;Man kann den meisten vertrauen.;4;5 Trifft voll und ganz zu;5 Trifft voll und ganz zu;5 Trifft voll und ganz zu;5 Trifft voll und ganz zu;4;2;2;2;3;1 Trifft gar nicht zu;4;3;4;3;3;5 Trifft voll und ganz zu;Medizin;0;10;9
S04;weakR;4;1;290;2;50;50;2;2;Weiblich;20;Man kann nicht vorsichtig genug sein.;3;4;5 Trifft voll und ganz zu;3;1 Trifft gar nicht zu;2;3;2;1 Trifft gar nicht zu;1 Trifft gar nicht zu;1 Trifft gar nicht zu;4;5 Trifft voll und ganz zu;4;3;4;1 Trifft gar nicht zu;Bildungswissenschaft;1;4;3
S04;weakR;4;1;181.5;3;85;85;3;3;Weiblich;27;Man kann nicht vorsichtig genug sein.;3;3;5 Trifft voll und ganz zu;4;5 Trifft voll und ganz zu;2;2;3;2;3;2;2;5 Trifft voll und ganz zu;4;3;5 Trifft voll und ganz zu;4;Chemieingenieurwesen: Molekulare und Strukturelle Produktgestaltung ;1;2;1
S04;weakR;4;1;349.5;4;15;15;4;4;Weiblich;22;Man kann nicht vorsichtig genug sein.;2;3;4;3;4;2;4;3;3;4;3;1 Trifft gar nicht zu;4;3;2;3;1 Trifft gar nicht zu;Psychologie;0;6;5
S04;weakR;4;1;250;5;30;30;5;5;Weiblich;23;Man kann den meisten vertrauen.;3;4;4;5 Trifft voll und ganz zu;4;4;3;3;2;2;2;1 Trifft gar nicht zu;2;1 Trifft gar nicht zu;1 Trifft gar nicht zu;2;5 Trifft voll und ganz zu;Philosophie - Neurowissenschaften - Kognition ;0;5;4
S04;weakR;4;1;241.5;6;35;20;6;6;Mnnlich;23;Man kann nicht vorsichtig genug sein.;2;2;3;4;4;2;3;1 Trifft gar nicht zu;2;3;2;3;3;4;2;3;4;Sozialwissenschaften;0;16;13
S04;weakR;4;1;184;7;60;40;7;7;Mnnlich;26;Man kann nicht vorsichtig genug sein.;3;4;4;3;3;2;2;1 Trifft gar nicht zu;3;1 Trifft gar nicht zu;1 Trifft gar nicht zu;2;3;4;1 Trifft gar nicht zu;3;5 Trifft voll und ganz zu;Wasserwirtschaft;1;6;4
S04;weakR;4;1;269.5;8;15;15;8;8;Mnnlich;23;Man kann den meisten vertrauen.;2;5 Trifft voll und ganz zu;4;5 Trifft voll und ganz zu;4;4;4;2;3;4;2;5 Trifft voll und ganz zu;4;4;3;4;3;Wirtschaftsingenieur Maschinenbau ;0;3;2
S04;weakR;4;1;226;9;30;25;9;9;Mnnlich;23;Man kann den meisten vertrauen.;3;4;3;2;4;2;3;4;2;3;4;2;1 Trifft gar nicht zu;1 Trifft gar nicht zu;1 Trifft gar nicht zu;1 Trifft gar nicht zu;5 Trifft voll und ganz zu;Maschinenbau;0;6;5
S04;weakR;4;1;250;10;10;6;10;10;Weiblich;23;Man kann den meisten vertrauen.;4;3;5 Trifft voll und ganz zu;3;4;3;5 Trifft voll und ganz zu;4;4;4;3;1 Trifft gar nicht zu;1 Trifft gar nicht zu;1 Trifft gar nicht zu;1 Trifft gar nicht zu;1 Trifft gar nicht zu;5 Trifft voll und ganz zu;Psychologie;0;4;3
S04;weakR;4;1;249.18;11;11;10;11;11;Weiblich;20;Man kann nicht vorsichtig genug sein.;3;3;4;3;4;2;4;3;2;2;1 Trifft gar nicht zu;2;2;2;1 Trifft gar nicht zu;3;3;Betriebliche Berufsbildung und Berufsbildungsmanagement ;0;10;9
S04;weakR;4;1;145.5;12;65;65;12;12;Weiblich;20;Man kann nicht vorsichtig genug sein.;1 Die Menschen nutzen einen aus;4;5 Trifft voll und ganz zu;4;5 Trifft voll und ganz zu;4;4;3;4;3;3;3;4;5 Trifft voll und ganz zu;4;5 Trifft voll und ganz zu;4;Sozialwissenschaften;0;19;16
S04;weakR;4;1;241.12;13;28;25;13;13;Weiblich;31;Man kann nicht vorsichtig genug sein.;3;3;3;3;4;2;4;2;3;4;4;1 Trifft gar nicht zu;1 Trifft gar nicht zu;1 Trifft gar nicht zu;2;3;5 Trifft voll und ganz zu;Wirtschaftsinformatik;0;4;3
S04;weakR;4;1;209.5;14;45;45;14;14;Mnnlich;23;Man kann nicht vorsichtig genug sein.;2;5 Trifft voll und ganz zu;4;5 Trifft voll und ganz zu;4;4;3;2;2;2;1 Trifft gar nicht zu;3;3;2;2;4;4;Wirtschaftsingenieur Maschinenbau ;0;28;25
S04;weakR;4;1;220;15;40;40;15;15;Mnnlich;26;Man kann den meisten vertrauen.;3;4;3;4;3;4;3;2;1 Trifft gar nicht zu;1 Trifft gar nicht zu;1 Trifft gar nicht zu;1 Trifft gar nicht zu;2;1 Trifft gar nicht zu;1 Trifft gar nicht zu;2;5 Trifft voll und ganz zu;Wirtschaftsinformatik;0;22;18
S04;weakR;4;1;257.5;16;15;15;16;16;Weiblich;28;Man kann nicht vorsichtig genug sein.;2;1 Trifft gar nicht zu;5 Trifft voll und ganz zu;2;3;2;5 Trifft voll und ganz zu;5 Trifft voll und ganz zu;5 Trifft voll und ganz zu;5 Trifft voll und ganz zu;4;2;4;3;2;2;3;Wirtschaftsingenieur Maschinenbau ;1;24;23
S04;weakR;4;1;187;17;40;40;17;17;Mnnlich;21;Man kann nicht vorsichtig genug sein.;2;4;5 Trifft voll und ganz zu;4;5 Trifft voll und ganz zu;4;2;2;2;1 Trifft gar nicht zu;2;1 Trifft gar nicht zu;4;2;2;3;4;Medienbildung - Audiovisuelle Kultur und Kommunikation ;0;3;2
S04;weakR;4;1;224.5;18;15;10;18;18;Mnnlich;25;Man kann nicht vorsichtig genug sein.;2;4;4;4;4;3;4;3;3;3;2;2;2;3;3;4;5 Trifft voll und ganz zu;Wirtschaftsingenieur Logistik ;0;4;3
S04;weakR;4;1;235;19;0;0;19;19;Weiblich;26;Man kann nicht vorsichtig genug sein.;2;4;5 Trifft voll und ganz zu;3;4;3;3;2;3;2;1 Trifft gar nicht zu;5 Trifft voll und ganz zu;5 Trifft voll und ganz zu;5 Trifft voll und ganz zu;2;3;5 Trifft voll und ganz zu;Friedens- und Konfliktforschung ;1;2;1
S04;weakR;4;1;187;20;40;30;20;20;Weiblich;20;Man kann nicht vorsichtig genug sein.;3;4;2;3;3;2;4;5 Trifft voll und ganz zu;3;4;2;1 Trifft gar nicht zu;2;1 Trifft gar nicht zu;1 Trifft gar nicht zu;2;4;Sozialwissenschaften;0;5;3
S04;weakR;4;1;220;21;70;60;21;21;Mnnlich;20;Man kann den meisten vertrauen.;3;3;4;2;4;2;2;2;3;4;2;2;2;3;1 Trifft gar nicht zu;4;5 Trifft voll und ganz zu;Wirtschaftsingenieur Maschinenbau ;0;2;1
S04;weakR;4;1;287.5;22;45;45;22;22;Mnnlich;22;Man kann nicht vorsichtig genug sein.;2;4;5 Trifft voll und ganz zu;2;4;3;2;2;2;2;2;2;4;4;3;4;4;Betriebswirtschaftslehre;1;1;0
S04;weakR;4;1;186;23;80;80;23;23;Mnnlich;22;Man kann den meisten vertrauen.;3;5 Trifft voll und ganz zu;5 Trifft voll und ganz zu;4;4;3;4;4;3;3;3;3;5 Trifft voll und ganz zu;4;3;4;4;Wirtschaftsingenieur Maschinenbau ;0;12;11
S04;weakR;4;1;339.18;24;11;11;24;24;Weiblich;23;Man kann nicht vorsichtig genug sein.;2;2;4;3;4;2;3;2;3;3;1 Trifft gar nicht zu;1 Trifft gar nicht zu;1 Trifft gar nicht zu;2;1 Trifft gar nicht zu;2;5 Trifft voll und ganz zu;Volkswirtschaftslehre - International Economics and Policy Consulting ;0;3;2
S04;weakR;5;1;257;1;70;70;1;1;Mnnlich;22;Man kann den meisten vertrauen.;4;5 Trifft voll und ganz zu;5 Trifft voll und ganz zu;5 Trifft voll und ganz zu;5 Trifft voll und ganz zu;4;2;2;2;3;1 Trifft gar nicht zu;4;3;4;3;3;5 Trifft voll und ganz zu;Medizin;0;10;9
S04;weakR;5;1;257;2;70;50;2;2;Weiblich;20;Man kann nicht vorsichtig genug sein.;3;4;5 Trifft voll und ganz zu;3;1 Trifft gar nicht zu;2;3;2;1 Trifft gar nicht zu;1 Trifft gar nicht zu;1 Trifft gar nicht zu;4;5 Trifft voll und ganz zu;4;3;4;1 Trifft gar nicht zu;Bildungswissenschaft;1;4;3
S04;weakR;5;1;192.92;3;88;85;3;3;Weiblich;27;Man kann nicht vorsichtig genug sein.;3;3;5 Trifft voll und ganz zu;4;5 Trifft voll und ganz zu;2;2;3;2;3;2;2;5 Trifft voll und ganz zu;4;3;5 Trifft voll und ganz zu;4;Chemieingenieurwesen: Molekulare und Strukturelle Produktgestaltung ;1;2;1
S04;weakR;5;1;372.5;4;15;15;4;4;Weiblich;22;Man kann nicht vorsichtig genug sein.;2;3;4;3;4;2;4;3;3;4;3;1 Trifft gar nicht zu;4;3;2;3;1 Trifft gar nicht zu;Psychologie;0;6;5
S04;weakR;5;1;271.5;5;35;30;5;5;Weiblich;23;Man kann den meisten vertrauen.;3;4;4;5 Trifft voll und ganz zu;4;4;3;3;2;2;2;1 Trifft gar nicht zu;2;1 Trifft gar nicht zu;1 Trifft gar nicht zu;2;5 Trifft voll und ganz zu;Philosophie - Neurowissenschaften - Kognition ;0;5;4
S04;weakR;5;1;262;6;40;35;6;6;Mnnlich;23;Man kann nicht vorsichtig genug sein.;2;2;3;4;4;2;3;1 Trifft gar nicht zu;2;3;2;3;3;4;2;3;4;Sozialwissenschaften;0;16;13
S04;weakR;5;1;150;7;80;60;7;7;Mnnlich;26;Man kann nicht vorsichtig genug sein.;3;4;4;3;3;2;2;1 Trifft gar nicht zu;3;1 Trifft gar nicht zu;1 Trifft gar nicht zu;2;3;4;1 Trifft gar nicht zu;3;5 Trifft voll und ganz zu;Wasserwirtschaft;1;6;4
S04;weakR;5;1;299.5;8;15;15;8;8;Mnnlich;23;Man kann den meisten vertrauen.;2;5 Trifft voll und ganz zu;4;5 Trifft voll und ganz zu;4;4;4;2;3;4;2;5 Trifft voll und ganz zu;4;4;3;4;3;Wirtschaftsingenieur Maschinenbau ;0;3;2
S04;weakR;5;1;227.5;9;35;30;9;9;Mnnlich;23;Man kann den meisten vertrauen.;3;4;3;2;4;2;3;4;2;3;4;2;1 Trifft gar nicht zu;1 Trifft gar nicht zu;1 Trifft gar nicht zu;1 Trifft gar nicht zu;5 Trifft voll und ganz zu;Maschinenbau;0;6;5
S04;weakR;5;1;255.5;10;15;10;10;10;Weiblich;23;Man kann den meisten vertrauen.;4;3;5 Trifft voll und ganz zu;3;4;3;5 Trifft voll und ganz zu;4;4;4;3;1 Trifft gar nicht zu;1 Trifft gar nicht zu;1 Trifft gar nicht zu;1 Trifft gar nicht zu;1 Trifft gar nicht zu;5 Trifft voll und ganz zu;Psychologie;0;4;3
S04;weakR;5;1;259.18;11;11;11;11;11;Weiblich;20;Man kann nicht vorsichtig genug sein.;3;3;4;3;4;2;4;3;2;2;1 Trifft gar nicht zu;2;2;2;1 Trifft gar nicht zu;3;3;Betriebliche Berufsbildung und Berufsbildungsmanagement ;0;10;9
S04;weakR;5;1;155.5;12;65;65;12;12;Weiblich;20;Man kann nicht vorsichtig genug sein.;1 Die Menschen nutzen einen aus;4;5 Trifft voll und ganz zu;4;5 Trifft voll und ganz zu;4;4;3;4;3;3;3;4;5 Trifft voll und ganz zu;4;5 Trifft voll und ganz zu;4;Sozialwissenschaften;0;19;16
S04;weakR;5;1;236.5;13;35;28;13;13;Weiblich;31;Man kann nicht vorsichtig genug sein.;3;3;3;3;4;2;4;2;3;4;4;1 Trifft gar nicht zu;1 Trifft gar nicht zu;1 Trifft gar nicht zu;2;3;5 Trifft voll und ganz zu;Wirtschaftsinformatik;0;4;3
S04;weakR;5;1;216.5;14;45;45;14;14;Mnnlich;23;Man kann nicht vorsichtig genug sein.;2;5 Trifft voll und ganz zu;4;5 Trifft voll und ganz zu;4;4;3;2;2;2;1 Trifft gar nicht zu;3;3;2;2;4;4;Wirtschaftsingenieur Maschinenbau ;0;28;25
S04;weakR;5;1;227;15;40;40;15;15;Mnnlich;26;Man kann den meisten vertrauen.;3;4;3;4;3;4;3;2;1 Trifft gar nicht zu;1 Trifft gar nicht zu;1 Trifft gar nicht zu;1 Trifft gar nicht zu;2;1 Trifft gar nicht zu;1 Trifft gar nicht zu;2;5 Trifft voll und ganz zu;Wirtschaftsinformatik;0;22;18
S04;weakR;5;1;264.5;16;15;15;16;16;Weiblich;28;Man kann nicht vorsichtig genug sein.;2;1 Trifft gar nicht zu;5 Trifft voll und ganz zu;2;3;2;5 Trifft voll und ganz zu;5 Trifft voll und ganz zu;5 Trifft voll und ganz zu;5 Trifft voll und ganz zu;4;2;4;3;2;2;3;Wirtschaftsingenieur Maschinenbau ;1;24;23
S04;weakR;5;1;192;17;40;40;17;17;Mnnlich;21;Man kann nicht vorsichtig genug sein.;2;4;5 Trifft voll und ganz zu;4;5 Trifft voll und ganz zu;4;2;2;2;1 Trifft gar nicht zu;2;1 Trifft gar nicht zu;4;2;2;3;4;Medienbildung - Audiovisuelle Kultur und Kommunikation ;0;3;2
S04;weakR;5;1;224;18;20;15;18;18;Mnnlich;25;Man kann nicht vorsichtig genug sein.;2;4;4;4;4;3;4;3;3;3;2;2;2;3;3;4;5 Trifft voll und ganz zu;Wirtschaftsingenieur Logistik ;0;4;3
S04;weakR;5;1;240;19;0;0;19;19;Weiblich;26;Man kann nicht vorsichtig genug sein.;2;4;5 Trifft voll und ganz zu;3;4;3;3;2;3;2;1 Trifft gar nicht zu;5 Trifft voll und ganz zu;5 Trifft voll und ganz zu;5 Trifft voll und ganz zu;2;3;5 Trifft voll und ganz zu;Friedens- und Konfliktforschung ;1;2;1
S04;weakR;5;1;192;20;40;40;20;20;Weiblich;20;Man kann nicht vorsichtig genug sein.;3;4;2;3;3;2;4;5 Trifft voll und ganz zu;3;4;2;1 Trifft gar nicht zu;2;1 Trifft gar nicht zu;1 Trifft gar nicht zu;2;4;Sozialwissenschaften;0;5;3
S04;weakR;5;1;220;21;70;70;21;21;Mnnlich;20;Man kann den meisten vertrauen.;3;3;4;2;4;2;2;2;3;4;2;2;2;3;1 Trifft gar nicht zu;4;5 Trifft voll und ganz zu;Wirtschaftsingenieur Maschinenbau ;0;2;1
S04;weakR;5;1;287.5;22;45;45;22;22;Mnnlich;22;Man kann nicht vorsichtig genug sein.;2;4;5 Trifft voll und ganz zu;2;4;3;2;2;2;2;2;2;4;4;3;4;4;Betriebswirtschaftslehre;1;1;0
S04;weakR;5;1;186;23;80;80;23;23;Mnnlich;22;Man kann den meisten vertrauen.;3;5 Trifft voll und ganz zu;5 Trifft voll und ganz zu;4;4;3;4;4;3;3;3;3;5 Trifft voll und ganz zu;4;3;4;4;Wirtschaftsingenieur Maschinenbau ;0;12;11
S04;weakR;5;1;339.18;24;11;11;24;24;Weiblich;23;Man kann nicht vorsichtig genug sein.;2;2;4;3;4;2;3;2;3;3;1 Trifft gar nicht zu;1 Trifft gar nicht zu;1 Trifft gar nicht zu;2;1 Trifft gar nicht zu;2;5 Trifft voll und ganz zu;Volkswirtschaftslehre - International Economics and Policy Consulting ;0;3;2
S04;weakR;1;2;239;1;60;0;1;1;Mnnlich;22;Man kann den meisten vertrauen.;4;5 Trifft voll und ganz zu;5 Trifft voll und ganz zu;5 Trifft voll und ganz zu;5 Trifft voll und ganz zu;4;2;2;2;3;1 Trifft gar nicht zu;4;3;4;3;3;5 Trifft voll und ganz zu;Medizin;0;10;9
S04;weakR;1;2;137;2;90;0;2;2;Weiblich;20;Man kann nicht vorsichtig genug sein.;3;4;5 Trifft voll und ganz zu;3;1 Trifft gar nicht zu;2;3;2;1 Trifft gar nicht zu;1 Trifft gar nicht zu;1 Trifft gar nicht zu;4;5 Trifft voll und ganz zu;4;3;4;1 Trifft gar nicht zu;Bildungswissenschaft;1;4;3
